"Time (s)","Linear Acceleration x (m/s^2)","Linear Acceleration y (m/s^2)","Linear Acceleration z (m/s^2)","Absolute acceleration (m/s^2)"
9.046916675E-3,-4.587750982E-2,7.870878518E-2,1.398987275E-1,1.669475149E-1
1.901691669E-2,3.004032623E-2,8.569704842E-2,6.605599523E-2,1.122933650E-1
2.898691667E-2,2.401879046E-2,2.496800370E-2,1.183242559E-2,3.661024173E-2
3.895691669E-2,5.833467387E-2,-7.968914397E-3,-1.541232491E-1,1.649861014E-1
4.892691667E-2,-1.344983853E-2,-4.401313425E-3,2.473956943E-3,1.436628621E-2
5.889591668E-2,-3.192415293E-2,-2.141397238E-2,1.130904132E-1,1.194451812E-1
6.886591669E-2,1.714812934E-2,-3.233672881E-2,-2.433494210E-2,4.395351838E-2
7.883591668E-2,6.709577635E-2,-2.668899458E-2,-9.800518155E-3,7.287109023E-2
8.880591669E-2,2.605150189E-2,-8.548078252E-3,-6.652552664E-2,7.195412488E-2
9.877591667E-2,-2.026626673E-2,3.554864549E-2,1.027303165E-1,1.105800420E-1
1.087459167E-1,-4.030960836E-3,2.954509676E-2,-3.738768160E-2,4.782259009E-2
1.187159167E-1,9.989785217E-3,7.529900421E-3,-7.553023875E-2,7.655920699E-2
1.286849167E-1,2.354235202E-2,-1.099263523E-2,-2.533072293E-2,3.628671785E-2
1.386549167E-1,-3.720108233E-3,6.909463446E-3,4.486100793E-2,4.554217740E-2
1.486249167E-1,1.751449395E-2,-1.735785024E-2,6.206351638E-2,6.678272627E-2
1.585949167E-1,4.225625608E-2,-7.223323595E-3,-6.038361132E-2,7.405368389E-2
1.685649167E-1,3.107422359E-2,7.807860151E-4,3.766074657E-2,4.883184239E-2
1.785349167E-1,-1.079688370E-2,1.829996687E-2,-3.944356263E-2,4.480241197E-2
1.885039167E-1,-2.348782673E-2,3.620623912E-3,3.000381768E-2,3.827552740E-2
1.984739167E-1,7.233809754E-3,-6.306021083E-3,-7.908885419E-2,7.966894478E-2
2.084439167E-1,1.091879815E-2,-2.019995565E-2,1.118864715E-2,2.554298703E-2
2.184139167E-1,9.786850289E-3,-3.473834816E-3,3.078851402E-2,3.249280786E-2
2.283839167E-1,5.724716485E-3,4.151271866E-4,5.180048347E-3,7.731598171E-3
2.383539167E-1,3.505299803E-2,1.262360641E-2,-4.380733967E-3,3.751345012E-2
2.483239167E-1,1.535332650E-2,1.189512099E-2,-5.135960340E-2,5.490926516E-2
2.582929167E-1,4.438036680E-4,2.122000470E-2,3.994174540E-2,4.523083668E-2
2.682629167E-1,1.252356648E-2,9.729817095E-3,-1.964547515E-2,2.524784648E-2
2.782329167E-1,5.990216620E-3,-1.136235057E-2,2.301347136E-2,2.635537080E-2
2.882029167E-1,1.993337743E-2,-1.545981206E-2,-4.193915427E-2,4.894116862E-2
2.981729167E-1,-1.087487094E-2,-3.889291480E-3,2.257551491E-2,2.535829805E-2
3.081429167E-1,4.375617653E-3,-1.844846788E-3,1.748668313E-2,1.811997727E-2
3.181119167E-1,1.392349955E-2,-1.491327556E-2,-2.920859635E-2,3.562880475E-2
3.280819167E-1,2.797315277E-2,8.999269740E-3,-2.869228721E-3,2.952484725E-2
3.380519167E-1,1.115107879E-2,6.740663923E-3,-5.723839402E-3,1.423184618E-2
3.480219167E-1,9.822627939E-3,-1.153271925E-3,2.151249111E-2,2.367702113E-2
3.579919167E-1,-3.874255456E-3,-9.191023582E-3,-2.383383572E-2,2.583672764E-2
3.679619167E-1,9.019549415E-3,6.046843249E-3,5.654257536E-3,1.224284335E-2
3.779319167E-1,-4.832175560E-3,1.629063974E-2,5.495213270E-3,1.785867387E-2
3.879009167E-1,2.142171308E-2,1.587403704E-2,5.192912221E-3,2.716323215E-2
3.978709167E-1,2.796025235E-2,-6.484694635E-3,-1.754457057E-2,3.363984144E-2
4.078409167E-1,3.262644008E-2,-8.766104593E-3,-3.758473277E-2,5.053653450E-2
4.178109167E-1,1.698064316E-2,5.248287180E-4,3.561655998E-2,3.946082909E-2
4.277809167E-1,1.669076744E-2,-1.417106746E-2,-8.242819905E-3,2.339540448E-2
4.377509167E-1,7.584350333E-3,-1.310549235E-2,1.284925640E-2,1.985899518E-2
4.477209167E-1,-3.596512713E-3,2.076316585E-3,-1.469522238E-2,1.527074180E-2
4.576899167E-1,-3.688752539E-3,6.992210113E-3,-2.266965508E-3,8.224173525E-3
4.676599167E-1,4.653872028E-3,-2.628661478E-3,-1.946713507E-2,2.018756384E-2
4.776299167E-1,2.523735020E-2,4.049196839E-5,-1.406840086E-2,2.889369114E-2
4.875999167E-1,3.005951241E-2,9.493575878E-3,1.467651129E-2,3.477214766E-2
4.975699167E-1,3.811430778E-2,-4.882230924E-3,-6.141915321E-3,3.891349073E-2
5.075399167E-1,2.739559405E-2,-1.431827797E-3,-2.857534289E-3,2.758141052E-2
5.175089167E-1,-6.218586937E-3,3.852538532E-5,-2.306200325E-2,2.388573427E-2
5.274789167E-1,-9.323092997E-3,-9.449006848E-3,1.332346559E-2,1.880740622E-2
5.374489167E-1,6.868249141E-3,8.695275625E-3,-1.825559199E-2,2.135526407E-2
5.474163333E-1,2.045878630E-2,1.031471682E-2,8.832803965E-3,2.455552373E-2
5.573863334E-1,2.227058262E-2,1.354253974E-3,1.093429327E-2,2.484696406E-2
5.673563333E-1,1.837659281E-2,-9.841019260E-3,-4.770158529E-3,2.138455601E-2
5.773263334E-1,8.532074355E-3,-2.126334947E-2,9.005881548E-3,2.461772179E-2
5.872953334E-1,6.945395842E-3,-5.623445450E-4,-1.240194440E-2,1.422543425E-2
5.972653333E-1,1.798062667E-2,9.798695468E-3,-5.377684236E-3,2.117160495E-2
6.072353334E-1,9.951595590E-3,2.328336605E-2,-1.540916741E-2,2.964104974E-2
6.172053333E-1,-4.710918926E-3,1.007578725E-2,-3.122413158E-3,1.155264947E-2
6.271753334E-1,1.496594846E-3,-1.190424356E-2,-1.732646942E-2,2.107504101E-2
6.371453333E-1,1.042664532E-2,-1.516747184E-2,4.560828209E-5,1.840568430E-2
6.471143333E-1,2.418700755E-2,-7.938090891E-3,7.830006480E-3,2.663331790E-2
6.570843334E-1,1.037058514E-2,1.234172493E-2,6.344228983E-4,1.613287646E-2
6.670543333E-1,1.011681598E-2,8.464899897E-3,3.775547147E-3,1.372075989E-2
6.770243334E-1,1.090615354E-3,-5.741499821E-3,-2.286085904E-2,2.359604073E-2
6.869943333E-1,-3.704733711E-2,2.786655072E-2,4.830384851E-3,4.660882377E-2
6.969643334E-1,7.368880436E-3,1.324087823E-2,-1.326733232E-2,2.014058991E-2
7.069333333E-1,5.403890725E-2,-2.062813857E-2,-3.614280939E-2,6.820576419E-2
7.169033333E-1,1.019670356E-2,-4.485899795E-2,5.144380331E-2,6.901280576E-2
7.268733334E-1,1.074023880E-2,-2.330614050E-2,4.452830136E-2,5.139356512E-2
7.368433333E-1,2.272809070E-2,9.274115714E-3,2.024598420E-2,3.181941554E-2
7.468133334E-1,2.374221716E-2,2.294143641E-2,-7.332116067E-2,8.041141077E-2
7.567833333E-1,1.567506954E-2,4.931855056E-2,-4.366408288E-2,6.770952199E-2
7.667533334E-1,-3.060940649E-2,2.341074627E-2,-8.329943419E-3,3.942571197E-2
7.767223333E-1,-9.074659422E-3,-3.400454201E-2,-3.363318443E-3,3.535491807E-2
7.866923333E-1,2.445718545E-2,-5.045081362E-2,-4.940897226E-4,5.606855304E-2
7.966623333E-1,3.313993525E-2,-2.746753764E-2,2.540205896E-2,4.997985126E-2
8.066323333E-1,1.471725907E-2,1.176889194E-3,3.464475274E-2,3.765954959E-2
8.166023334E-1,2.878679283E-2,6.045399718E-3,-2.569266558E-2,3.905559324E-2
8.265723333E-1,2.613902740E-2,8.699558254E-3,-3.779347837E-2,4.676834479E-2
8.365413334E-1,-1.317348450E-2,2.410427858E-3,-2.100553751E-2,2.491151265E-2
8.465113333E-1,-2.155627213E-2,3.838100934E-3,2.479921103E-2,3.308178887E-2
8.564813334E-1,8.290145807E-3,-1.288030831E-2,2.672996163E-2,3.080778649E-2
8.664513333E-1,2.447852779E-2,-7.637365849E-3,2.030153275E-3,2.572254269E-2
8.764213333E-1,5.569180548E-3,9.736463735E-3,1.266039133E-2,1.691449103E-2
8.863913333E-1,1.676078785E-2,1.925592039E-2,-7.396143079E-3,2.657851411E-2
8.963613333E-1,1.307470310E-2,1.591000655E-2,-2.355258465E-2,3.128578612E-2
9.063303334E-1,1.204190210E-2,1.253397042E-2,-4.224028587E-3,1.788715288E-2
9.163003333E-1,1.010362320E-3,-9.238280961E-3,1.808426857E-2,2.033242329E-2
9.262703334E-1,7.293268628E-3,-1.062757940E-2,2.181362271E-2,2.533715349E-2
9.362403333E-1,2.396978348E-2,-1.643925266E-2,-3.798351288E-3,2.931257445E-2
9.462103333E-1,-1.520710956E-2,-4.662383381E-2,-2.233577907E-2,5.388807927E-2
9.561803333E-1,-2.274493799E-3,-4.375704448E-2,1.091148913E-2,4.515432270E-2
9.661493333E-1,1.932281848E-2,-7.327611884E-4,6.418605566E-2,6.703549802E-2
9.761193334E-1,3.336446833E-2,3.096713732E-2,1.760830522E-2,4.880782471E-2
9.860893333E-1,1.004566267E-2,2.489161074E-2,-3.628080368E-2,4.513096874E-2
9.960593334E-1,2.264294062E-2,3.633578121E-2,-5.377625763E-2,6.873774539E-2
1.006029333E0,9.774790406E-3,3.057455161E-2,3.936930299E-3,3.233959112E-2
1.015999333E0,-3.910595901E-2,7.083586105E-2,1.581788778E-1,1.776725996E-1
1.025969333E0,-7.535752662E-2,1.719224476E-1,3.184153908E-1,3.696274421E-1
1.035938333E0,2.762626670E-3,2.441263698E-1,-1.078869760E-1,2.669174332E-1
1.045908333E0,7.662819967E-2,2.429533087E-1,-4.006827915E-1,4.748103733E-1
1.055878333E0,5.102024563E-3,2.869901333E-1,-1.791101557E-1,3.383338812E-1
1.065848333E0,-5.459413692E-2,3.131953256E-1,1.559107429E-1,3.540903720E-1
1.075818333E0,-1.907559089E-2,2.737152179E-1,1.445928723E-1,3.101467352E-1
1.085788333E0,7.585695192E-2,2.148862716E-1,-7.765043914E-2,2.407487852E-1
1.095757333E0,-4.407247435E-2,1.422847387E-1,2.260065794E-2,1.506589513E-1
1.105727333E0,-7.681702819E-2,1.336269127E-1,1.751176769E-1,2.332878230E-1
1.115697333E0,-2.607302696E-2,1.303693192E-1,1.540384644E-1,2.034792634E-1
1.125667333E0,1.238610210E-1,1.683653853E-1,-1.223559111E-1,2.421970778E-1
1.135637333E0,2.768926680E-1,2.195813665E-1,-2.869983011E-1,4.552510856E-1
1.145607333E0,2.939844813E-1,2.637145057E-1,-5.757928669E-2,3.991084941E-1
1.155576333E0,1.838077357E-1,2.616427641E-1,1.688178867E-1,3.615822155E-1
1.165546333E0,3.919012237E-2,2.367033661E-1,1.776664782E-1,2.985460210E-1
1.175516333E0,-1.826803194E-1,1.537191334E-1,9.957808256E-2,2.586841038E-1
1.185486333E0,-3.644866262E-1,1.250928101E-1,-1.796328968E-1,4.251666608E-1
1.195456333E0,-4.067907199E-1,1.260778284E-1,-2.538749939E-1,4.958092588E-1
1.205426333E0,-1.794847795E-1,1.663229529E-1,4.992235780E-2,2.497405705E-1
1.215396333E0,2.427353903E-1,4.202358441E-1,2.755903834E-1,5.580938037E-1
1.225365333E0,1.345420202E-1,4.988825757E-1,3.584413362E-1,6.288605338E-1
1.235335333E0,-5.205271773E-2,4.735748396E-1,-9.518331528E-2,4.858420295E-1
1.245305333E0,5.752925646E-2,4.534302315E-1,-7.150103939E-1,8.486156100E-1
1.255275333E0,6.097929642E-2,4.197503424E-1,-4.348404711E-1,6.074496357E-1
1.265245333E0,-4.289225042E-3,4.765187665E-1,4.570984823E-1,6.603238257E-1
1.275215333E0,2.253866284E-1,4.366109350E-1,2.010196728E-1,5.308833672E-1
1.285184333E0,1.520611919E-1,2.865588829E-1,-3.287889361E-3,3.244216541E-1
1.295154333E0,1.719085056E-2,1.236185991E-1,1.713526547E-2,1.259789693E-1
1.305124333E0,-1.338226665E-2,1.637099053E-1,2.476173037E-1,2.971436475E-1
1.315094333E0,-6.605135400E-2,3.363774526E-1,7.434225994E-1,8.186511671E-1
1.325064333E0,-1.047021804E-1,5.180776325E-1,2.124147266E-1,5.696376005E-1
1.335034333E0,-2.969287737E-1,7.428931341E-1,-2.723276371E-1,8.451149313E-1
1.345003333E0,-1.176393277E-1,6.768999233E-1,-1.097827018E0,1.295089448E0
1.354973333E0,3.032351419E-2,5.624063976E-1,-1.370958062E0,1.482142530E0
1.364943333E0,-3.241071437E-1,5.171221609E-1,9.474272758E-1,1.126977911E0
1.374913333E0,1.615885720E-1,4.707044414E-1,7.961247236E-1,9.388759840E-1
1.384883333E0,-6.086695679E-2,5.255260716E-1,6.888622302E-1,8.685698651E-1
1.394853333E0,-1.649536812E-1,6.022524679E-1,-2.768054348E-1,6.830366028E-1
1.404822333E0,-1.602484267E-2,2.646995788E-1,-1.478586007E0,1.502178166E0
1.414792333E0,1.576522264E-1,1.425952624E-1,-1.075146838E0,1.095960016E0
1.424762333E0,-1.386399682E-1,4.517348313E-1,1.169109839E0,1.260992948E0
1.434732333E0,1.406674902E-1,4.455425203E-1,1.544353150E0,1.613481370E0
1.444702333E0,1.633824247E-1,-1.469340060E-1,-7.138438743E-1,7.468979152E-1
1.454672333E0,1.153584020E-1,-2.624945938E-1,-6.472540283E-1,7.079186040E-1
1.464641333E0,-3.180981794E-1,1.888707757E-2,5.110139036E-1,6.022278498E-1
1.474611333E0,8.269950986E-2,4.733227881E-2,1.962933683E-1,2.181986251E-1
1.484581333E0,2.634349722E-1,-3.510678876E-1,-8.052732772E-1,9.171214190E-1
1.494551333E0,1.590350198E-1,-2.073772041E-1,1.267588645E-1,2.904569711E-1
1.504521333E0,1.225289522E-1,-5.301977868E-2,1.453881521E0,1.459998602E0
1.514491333E0,-1.418141657E-1,-3.428579765E-2,6.978546631E-1,7.129431284E-1
1.524460333E0,-2.270205231E-1,-3.412851212E-2,-7.359305620E-1,7.709065218E-1
1.534430333E0,-3.558475113E-1,-9.488875265E-3,-1.575434024E0,1.615150103E0
1.544400333E0,-2.403832747E-1,-6.136990413E-2,-2.803739905E-3,2.481093405E-1
1.554370333E0,4.114504026E-1,4.048930060E-1,1.243737268E0,1.371171824E0
1.564340333E0,1.210630187E0,7.759842816E-1,-2.758043915E-1,1.464187528E0
1.574310333E0,1.611601173E-1,7.616057316E-2,8.856017411E-2,1.990374858E-1
1.584280333E0,6.821818594E-2,6.228621307E-2,-4.637894511E-2,1.033648866E-1
1.594249333E0,-4.742874690E-1,2.000647128E-1,1.316120535E-1,5.313155609E-1
1.604219333E0,-4.585830172E-1,1.436482637E-1,2.907820344E-2,4.814340549E-1
1.614189333E0,-4.352532846E-1,3.242804588E-2,-1.027865083E0,1.116693166E0
1.624159333E0,-3.534819837E-1,-1.974917552E-1,-1.091341871E0,1.164035904E0
1.634129333E0,-3.538970629E-1,6.971123591E-3,9.431535459E-1,1.007387879E0
1.644099333E0,1.498361802E-1,-1.418808880E-1,9.094542879E-1,9.325707314E-1
1.654068333E0,2.696433996E-1,1.515725017E-1,1.012184604E0,1.058394756E0
1.664038333E0,3.783393014E-1,-4.253689959E-2,-9.822258103E-1,1.053431325E0
1.674008333E0,2.865208760E-1,1.573480616E-1,-6.393164331E-1,7.180376915E-1
1.683978333E0,-6.541269918E-1,4.922504809E-1,2.541726172E-2,8.190474312E-1
1.693948333E0,3.247294701E-1,1.824215984E-1,-2.127562040E-1,4.289429690E-1
1.703918333E0,9.002857076E-1,-5.326922181E-2,-1.360838871E0,1.632554562E0
1.713887333E0,5.765431378E-1,-4.194325845E-4,1.754181068E0,1.846497599E0
1.723857333E0,-4.016394325E-1,1.462266209E-1,2.690862916E0,2.724598996E0
1.733827333E0,2.004241704E-1,-1.904863157E-1,-1.705717006E0,1.727983040E0
1.743797333E0,-7.994882613E-1,8.733942166E-2,-3.098726088E-1,8.618762603E-1
1.753767333E0,-4.824690759E-1,2.097838998E-1,-1.576020500E0,1.661513259E0
1.763737333E0,-5.505924638E-1,1.713027158E-1,-1.569445306E-1,5.976020979E-1
1.773706333E0,-4.577882344E-1,-2.915135576E-1,-8.978773856E-1,1.049158721E0
1.783676333E0,-8.726326168E-2,-5.171559286E-1,1.435945771E0,1.528726722E0
1.793646333E0,1.761518300E-1,-2.196260794E-1,2.432589646E0,2.448827774E0
1.803616333E0,3.756779046E-1,-1.755455195E-2,-2.728942323E-1,4.646647311E-1
1.813586333E0,8.897902478E-1,1.521576801E-1,-2.084601962E0,2.271661063E0
1.823556333E0,1.272374884E0,2.045478827E-1,-9.266030020E-1,1.587252596E0
1.833525333E0,9.611479135E-1,1.081247201E-1,1.660600474E0,1.921741450E0
1.843495333E0,2.377254594E-1,-1.537676835E-1,1.502219283E0,1.528666304E0
1.853465333E0,2.355239461E-1,-1.347211643E-1,-2.007372522E-1,3.375155785E-1
1.863435333E0,-3.185038665E-1,-2.866813638E-1,-1.617047489E-1,4.580167499E-1
1.873405333E0,-6.239772861E-1,-1.862971786E-2,-6.775560540E-1,9.212909021E-1
1.883375333E0,-4.132740029E-1,2.725163377E-1,1.378983951E-1,5.138837643E-1
1.893344333E0,-4.639962233E-1,2.923980221E-1,-4.651395732E-1,7.191271940E-1
1.903314333E0,-3.320210577E-1,1.273642158E-1,-1.339798250E0,1.386188651E0
1.913284333E0,-4.611715430E-1,3.666943156E-1,3.802438492E-1,7.012341250E-1
1.923254333E0,-3.115268592E-1,5.448682955E-1,5.094959664E-1,8.084037254E-1
1.933224333E0,-1.430803803E-1,-3.537166671E-2,-2.913170546E-1,3.264793659E-1
1.943194333E0,9.534506388E-3,3.507314808E-2,-6.666995287E-2,7.593362328E-2
1.953163333E0,-1.100968581E-1,3.757808887E-1,7.733702838E-1,8.668530385E-1
1.963133333E0,-2.496030182E-4,1.039898616E-1,-8.328364670E-2,1.332295741E-1
1.973103333E0,1.417818964E-1,-4.561274059E-1,-1.946910558E0,2.004648358E0
1.983073333E0,-2.564230278E-1,-4.763938554E-1,-4.468886590E-1,7.017217028E-1
1.993043333E0,4.057290117E-1,-2.971502552E-1,1.712430194E0,1.784749695E0
2.003013333E0,1.308311944E-1,-3.711147375E-1,2.220992945E0,2.255582544E0
2.012982333E0,-2.503101658E-1,-4.518303968E-1,2.870047331E-1,5.909125175E-1
2.022952333E0,2.152298320E-1,-3.979457829E-1,-1.909194848E0,1.962067709E0
2.032922333E0,1.095419208E-1,-1.961656615E-1,-1.221225488E0,1.241721422E0
2.042892333E0,1.606065321E-1,9.463357651E-3,3.810367316E-1,4.136097244E-1
2.052862333E0,3.924484500E-1,-8.180331443E-2,9.591521126E-1,1.039557763E0
2.062832333E0,1.742340895E-1,-2.005527360E-1,-5.438319862E-2,2.711760501E-1
2.072801333E0,-7.367513649E-2,-3.363605688E-1,-4.231530565E-1,5.455501509E-1
2.082771333E0,4.143936351E-1,-3.340162099E-2,8.684226215E-1,9.628061085E-1
2.092741333E0,5.922201077E-1,2.655846463E-1,6.209555912E-1,8.982459054E-1
2.102711333E0,-3.085955769E-2,-7.864869590E-2,-3.787966633E-1,3.881041636E-1
2.112681333E0,-1.588712247E-1,3.579815029E-2,-9.944739729E-1,1.007720227E0
2.122651333E0,-5.303461873E-1,1.649174650E-1,9.602414489E-2,5.636359508E-1
2.132620333E0,-5.412291712E-1,2.425060333E-1,4.437574750E-1,7.407151197E-1
2.142590333E0,-5.455380941E-1,-5.865642604E-2,-9.706693733E-1,1.115011848E0
2.152560333E0,-2.881207838E-1,-2.371021827E-1,-7.800676847E-1,8.647176555E-1
2.162530333E0,-5.153063446E-2,-1.646915797E-1,2.113236362E-1,2.728303537E-1
2.172500333E0,3.168431842E-1,2.056944120E-1,1.919711650E0,1.956525649E0
2.182470333E0,5.752073414E-1,-2.639408706E-2,1.730840153E-1,6.012638437E-1
2.192439333E0,3.421399202E-1,-9.151024058E-2,-1.105607323E0,1.160948492E0
2.202409333E0,-5.855489463E-1,2.602992749E-1,-5.554813939E-1,8.480464964E-1
2.212379333E0,2.148430387E-1,1.729083612E-1,-2.348990250E-1,3.622601063E-1
2.222349333E0,8.271820633E-1,-4.985603301E-2,3.100895405E-2,8.292631338E-1
2.232319333E0,6.566633677E-1,-2.419705014E-1,1.591881073E-1,7.177028324E-1
2.242289333E0,-5.790311281E-1,7.439493787E-2,2.273975151E0,2.347716899E0
2.252258333E0,3.008506108E-1,-2.575724259E-1,-1.048683509E0,1.120978032E0
2.262228333E0,-7.760855846E-1,6.947934813E-2,6.612785751E-1,1.021971413E0
2.272198333E0,-5.199906222E-1,8.534426945E-2,-1.053472379E0,1.177912537E0
2.282168333E0,-3.829168672E-1,6.367198034E-2,-1.510624071E0,1.559700142E0
2.292138333E0,-3.280726157E-1,-2.745431105E-1,-1.206115113E0,1.279734045E0
2.302108333E0,1.994429711E-1,-3.770511598E-1,1.216978655E0,1.289566641E0
2.312077333E0,-2.598316987E-1,-4.026712833E-1,3.265083466E0,3.300064653E0
2.322047333E0,5.954486478E-2,-6.085722848E-1,-1.556645751E-1,6.309812015E-1
2.332017333E0,-2.781532180E-1,-5.976081342E-1,-1.354612171E0,1.506478951E0
2.341987333E0,2.125444617E-1,-3.684002408E-1,-1.690578564E0,1.743258377E0
2.351957333E0,1.621685062E0,2.047330384E-1,-3.723916233E-1,1.676440747E0
2.361927333E0,1.389931839E0,3.301838991E-1,2.004485752E0,2.461482288E0
2.371896333E0,8.880711664E-1,-2.078672739E-1,1.579101983E0,1.823579522E0
2.381866333E0,4.539154408E-1,-1.567144975E-1,-1.313155997E-1,4.978377726E-1
2.391836333E0,-1.666498853E-1,-2.822090661E-1,-4.953059435E-1,5.939209703E-1
2.401806333E0,-5.128910060E-1,-3.952890913E-2,-8.222915983E-1,9.699397875E-1
2.411776333E0,-4.827651643E-1,3.181079918E-2,4.304018497E-2,4.857227484E-1
2.421746333E0,-4.094106014E-1,3.238720673E-2,7.145414472E-2,4.168592886E-1
2.431715333E0,-2.386922965E-1,1.284669276E-1,-1.079624636E0,1.113133917E0
2.441685333E0,-5.579537063E-1,2.414296614E-2,-3.987350839E-1,6.862105278E-1
2.451655333E0,-4.555755749E-1,2.664022149E-1,5.863909453E-1,7.889065758E-1
2.461625333E0,-3.157604991E-1,-6.110881224E-2,-5.308856660E-1,6.207081199E-1
2.471595333E0,-1.565679334E-1,-3.516857921E-1,2.106167078E-1,4.388118181E-1
2.481565333E0,3.781905994E-3,-1.338681194E-3,6.814988315E-1,6.815106399E-1
2.491534333E0,5.096911903E-2,3.005712236E-1,6.987334996E-1,7.623446826E-1
2.501504333E0,-1.943086041E-1,1.400280606E-1,2.890454113E-2,2.412450287E-1
2.511474333E0,-7.631731052E-2,-2.883238101E-1,-1.571983582E0,1.600027292E0
2.521444333E0,-3.004547909E-2,-1.732361890E-1,-1.595240298E0,1.604900345E0
2.531414333E0,-4.344723524E-1,-1.503599993E-1,-1.135867249E0,1.225385148E0
2.541384333E0,-3.154861551E-2,-5.107944138E-1,1.107173792E0,1.219729500E0
2.551353083E0,1.691750054E-1,-8.510987102E-1,3.124840922E0,3.243088033E0
2.561323083E0,-2.312860304E-1,-1.030045656E0,1.935850550E0,2.204995381E0
2.571293083E0,4.058040022E-1,-8.377231313E-1,-3.747480512E-1,1.003440599E0
2.581263083E0,1.162191560E0,1.998208748E-2,-2.133536140E0,2.429622392E0
2.591233083E0,8.299127130E-1,7.333525338E-2,-1.113799857E0,1.390928931E0
2.601203083E0,2.595724112E-1,2.154055409E-1,1.808426272E0,1.839614896E0
2.611172083E0,1.402327863E-1,1.102881351E-1,5.552960372E-1,5.832515718E-1
2.621142083E0,1.085564457E-1,-2.407471177E-1,-1.562519864E0,1.584680410E0
2.631112083E0,-3.537630885E-1,-2.529967969E-1,-9.627370405E-1,1.056417678E0
2.641082083E0,-3.416696944E-1,1.420976552E-1,2.988886142E-1,4.756725001E-1
2.651052083E0,-4.513678820E-1,-3.071764394E-2,6.468242580E-1,7.893403317E-1
2.661022083E0,-3.538529164E-1,-1.422164542E-1,7.603766012E-1,8.506526800E-1
2.670991083E0,-2.841684680E-1,-2.139424579E-1,-7.706337869E-2,3.639530984E-1
2.680961083E0,-6.361902192E-2,-3.660933041E-2,-6.277518100E-1,6.320284471E-1
2.690931083E0,2.413725505E-1,3.506070539E-1,5.538891971E-2,4.292481180E-1
2.700901083E0,1.283114099E-1,4.109433393E-1,3.159303242E-1,5.339945840E-1
2.710871083E0,4.434418716E-2,3.730135843E-1,-2.079679191E-2,3.762154270E-1
2.720840083E0,1.694801570E-1,3.194755276E-1,-9.722299951E-1,1.037313501E0
2.730810083E0,8.153448869E-2,2.036203315E-1,-6.669199687E-1,7.020622173E-1
2.740780083E0,2.161578217E-1,2.091830071E-1,6.307619566E-1,6.988149828E-1
2.750750083E0,8.292996325E-2,2.416940012E-1,1.180451099E0,1.207790613E0
2.760720083E0,-8.303013336E-2,-1.742697529E-3,4.392106801E-1,4.469933574E-1
2.770690083E0,-1.602998091E-1,1.193748179E-1,-5.116553432E-1,5.493064410E-1
2.780659083E0,-3.582060588E-1,2.593736242E-1,-1.523375094E-1,4.677531125E-1
2.790629083E0,-1.536197307E-1,1.394363590E-1,-1.818592241E0,1.830387735E0
2.800599083E0,-1.694800473E-1,5.873623871E-1,3.830160141E-2,6.125235284E-1
2.810569083E0,-4.203600609E-1,7.353328669E-2,6.789108539E-1,8.018913097E-1
2.820539083E0,5.816465876E-1,-1.585033252E-1,6.700032055E-2,6.065682978E-1
2.830509083E0,5.806851226E-1,-8.752565548E-2,6.696564656E-1,8.906715074E-1
2.840478083E0,2.843734495E-1,-2.413494175E-1,8.398069328E-1,9.189088554E-1
2.850448083E0,3.556707792E-2,-2.704189232E-1,5.919668502E-1,6.517792285E-1
2.860418083E0,-1.582755031E-1,-1.881875195E-1,-1.102855039E0,1.129935801E0
2.870388083E0,2.996211972E-1,1.298859098E-1,-1.053002263E0,1.102477654E0
2.880358083E0,-5.334123210E-1,2.055259757E-1,8.554230917E-1,1.028843184E0
2.890328083E0,-3.860612075E-1,-4.040068788E-2,-6.754756147E-1,7.790653230E-1
2.900297083E0,-2.050546170E-1,-2.190131816E-1,-5.814026856E-1,6.542501452E-1
2.910267083E0,-4.560926881E-2,-3.147188177E-1,7.767166454E-1,8.392954705E-1
2.920237083E0,1.269080051E-1,-8.305669251E-2,1.462940027E0,1.470781282E0
2.930207083E0,7.588512819E-2,-9.341745615E-2,7.813026166E-1,7.905182809E-1
2.940177083E0,1.757261893E-1,6.421415427E-2,-1.095505673E0,1.111366650E0
2.950147083E0,3.754933153E-1,3.246818838E-2,-1.834588469E0,1.872902631E0
2.960116083E0,4.762192429E-1,-6.557005963E-2,-9.194793391E-1,1.037557929E0
2.970086083E0,8.521721859E-1,2.500287686E-3,1.325244530E0,1.575587748E0
2.980056083E0,5.318398220E-1,-1.070356854E-1,2.157648888E0,2.224805376E0
2.990026083E0,3.358895756E-1,-2.853729031E-1,3.673846525E-1,5.737865315E-1
2.999996083E0,-1.098616538E-1,-2.544883668E-1,-8.954887980E-1,9.374081818E-1
3.009965083E0,-3.882214247E-1,-6.278304367E-2,-1.452816743E-1,4.192425910E-1
3.019935083E0,-5.619140255E-1,1.414537854E-1,8.918582618E-2,5.862684172E-1
3.029905083E0,-3.628268941E-1,2.898946829E-1,-3.771284527E-1,5.982542537E-1
3.039875083E0,-9.380735580E-2,4.377759927E-1,-7.952733690E-1,9.126375902E-1
3.049845083E0,-2.563259640E-1,7.593095575E-2,-1.316834480E0,1.343696974E0
3.059815083E0,-5.092017053E-1,-1.499669934E-1,-5.895934653E-1,7.933454041E-1
3.069784083E0,-2.869166959E-1,2.488383668E-1,1.935061176E0,1.971979583E0
3.079754083E0,-5.158815645E-2,4.076355329E-2,1.068221980E0,1.070243526E0
3.089724083E0,2.869200581E-1,-2.779362863E-1,-9.246973944E-1,1.007291899E0
3.099694083E0,-3.224133515E-1,-1.404711517E-1,-4.221023118E-1,5.494113899E-1
3.109664083E0,2.078982276E-1,-4.669063825E-2,-3.612409830E-2,2.161171886E-1
3.119634083E0,1.055946117E-1,-1.147585325E-1,3.786265093E-1,4.094847694E-1
3.129603083E0,2.294751112E-1,-4.312321178E-1,-5.616630703E-1,7.443691091E-1
3.139573083E0,2.348548785E-1,-3.002293807E-1,-9.573780674E-1,1.030469436E0
3.149543083E0,1.501247768E-1,-2.355003745E-1,1.094600524E0,1.129667289E0
3.159513083E0,2.063220741E-1,-4.518469151E-1,1.658124179E0,1.730927562E0
3.169483083E0,4.823419355E-2,-3.885376860E-1,4.064118934E-1,5.643214491E-1
3.179453083E0,-2.534087516E-1,-2.605166635E-1,-4.679707950E-1,5.925213855E-1
3.189422083E0,-2.985497315E-1,-8.529805818E-2,-5.761811221E-1,6.545169106E-1
3.199392083E0,3.678161770E-2,-5.061129685E-2,-1.114965792E0,1.116719798E0
3.209362083E0,-5.816455644E-2,-1.953929337E-2,-4.880232364E-1,4.918654073E-1
3.219332083E0,7.155588627E-2,-1.460927744E-1,2.118931550E-1,2.671367678E-1
3.229302083E0,5.620478902E-2,-2.787574364E-1,4.728654993E-1,5.517848014E-1
3.239272083E0,3.606569558E-1,-4.315871534E-1,-1.343386102E-1,5.782627197E-1
3.249241083E0,6.707487255E-3,-3.743115200E-1,4.086320812E-1,5.541969705E-1
3.259211083E0,-1.525564511E-1,-2.898924902E-1,9.566500890E-1,1.011182733E0
3.269181083E0,1.121975068E-1,-1.802845507E-1,3.198462045E-1,3.839171712E-1
3.279151083E0,3.836386695E-1,-6.057335347E-2,-1.011928496E0,1.083903613E0
3.289121083E0,2.043946491E-1,-8.746603215E-2,-7.255839139E-1,7.588804224E-1
3.299090083E0,1.454491970E-1,-1.822731522E-1,3.809922928E-1,4.466923976E-1
3.309060083E0,3.600457390E-1,5.774309096E-2,4.671714807E-1,5.926351248E-1
3.319030083E0,1.055251029E-1,5.069111134E-2,-3.912722826E-2,1.234345012E-1
3.329000083E0,-2.213434980E-1,-1.606263030E-1,-8.684752464E-2,2.869429314E-1
3.338970083E0,-5.591212857E-1,-2.629011215E-1,-7.511508644E-2,6.223952827E-1
3.348940083E0,-6.212625700E-1,-2.004707288E-1,-2.270894837E-1,6.911767702E-1
3.358909083E0,-2.725728181E-1,-1.225238541E-1,-3.645089918E-1,4.713542629E-1
3.368879083E0,1.604649564E-1,-3.088840273E-1,-7.374128312E-1,8.154360969E-1
3.378849083E0,4.577342573E-1,-1.579615624E-1,2.444317406E-1,5.424199308E-1
3.388819083E0,1.255326669E-1,-3.642927910E-1,1.166375681E0,1.228372874E0
3.398789083E0,1.312453600E-1,-5.457226468E-1,3.109555131E-1,6.416633720E-1
3.408759083E0,1.907514139E-1,-4.298530886E-1,-4.763375759E-2,4.726825092E-1
3.418728083E0,-1.407702916E-1,5.732788383E-2,6.005447155E-1,6.194810058E-1
3.428698083E0,-3.834024054E-1,-1.479972857E-1,-1.265908740E0,1.330949112E0
3.438668083E0,1.036496450E-1,-2.329337027E-1,-1.730440788E0,1.749121688E0
3.448638083E0,3.274967015E-2,1.704254690E-1,9.351112854E-1,9.510785969E-1
3.458608083E0,-5.956120775E-1,2.405996948E-1,9.097378778E-1,1.113671840E0
3.468578083E0,3.740007039E-2,-5.392563572E-1,-4.691642118E-1,7.157592065E-1
3.478547083E0,9.777440657E-1,-4.764095332E-1,-3.599551803E-1,1.145651445E0
3.488517083E0,2.217455672E-1,1.698066509E-1,1.121148053E0,1.155412633E0
3.498487083E0,-3.288097303E-1,-6.431918032E-2,1.037945098E0,1.090679981E0
3.508457083E0,4.110221305E-1,-2.962097854E-1,-1.432053280E0,1.519031279E0
3.518427083E0,3.002755372E-1,-2.763510148E-1,-1.168033367E0,1.237270071E0
3.528397083E0,-3.736923729E-1,1.641969601E-1,1.788350442E0,1.834340191E0
3.538366083E0,-1.572096653E-1,4.453858880E-1,9.979811329E-1,1.104105887E0
3.548336458E0,-3.923198113E-1,5.540187952E-2,-1.898910765E0,1.939805737E0
3.558306458E0,2.487930692E-1,-2.888969652E-1,-1.745873929E0,1.787018529E0
3.568276458E0,-1.045201858E-1,9.150958277E-2,1.220353668E0,1.228235135E0
3.578246458E0,-4.190135933E-1,4.146394740E-1,2.218740013E0,2.295714601E0
3.588216458E0,-4.652836340E-1,1.899216574E-1,-7.419093400E-1,8.960962922E-1
3.598185458E0,-2.332872765E-1,-3.796115824E-1,-1.459626995E0,1.526118891E0
3.608155458E0,-1.067814868E-2,-5.845830593E-1,-1.350175304E0,1.471334336E0
3.618125458E0,2.683688528E-1,-6.335847365E-2,-7.324280798E-2,2.853079849E-1
3.628095458E0,5.769638084E-1,8.819817664E-2,2.381600756E0,2.452078367E0
3.638065458E0,4.738563830E-1,-2.725097961E-1,1.786778710E0,1.868523380E0
3.648035458E0,6.621335111E-1,-2.876460630E-1,-6.772940987E-1,9.898930954E-1
3.658004458E0,5.107110909E-1,-4.133870004E-2,-1.013610156E0,1.135755367E0
3.667974458E0,1.012257183E-1,1.447320543E-1,-4.854095310E-1,5.165427633E-1
3.677944458E0,-8.264443640E-2,2.364222612E-1,8.668789566E-2,2.650290167E-1
3.687914458E0,-3.301587560E-1,9.879857562E-2,1.395870709E-1,3.718205388E-1
3.697884458E0,-3.876745274E-1,-9.586722937E-2,-4.078719431E-1,5.708253558E-1
3.707854458E0,-4.256547877E-1,-8.098229226E-2,-5.516163844E-1,7.014419188E-1
3.717823458E0,-4.060787483E-1,-1.785854046E-1,4.346849352E-1,6.210826752E-1
3.727793458E0,-7.180274840E-2,-3.710807506E-1,4.298843712E-1,5.724134264E-1
3.737763458E0,7.852081181E-1,4.297852426E-2,-7.434793174E-2,7.898902185E-1
3.747733458E0,6.540350443E-1,-6.655362982E-2,1.884031355E-1,6.838764262E-1
3.757703458E0,-2.144617272E-1,-5.651621903E-1,2.456579018E-1,6.524951636E-1
3.767673458E0,2.147709353E-1,-2.837261262E-1,3.777213603E-1,5.189417071E-1
3.777642458E0,3.666705613E-1,8.319400158E-4,-4.406485105E-1,5.732530876E-1
3.787612458E0,1.245372880E-2,-2.279138452E-2,-2.975794226E-1,2.987106548E-1
3.797582458E0,-4.023651450E-1,-2.530100445E-1,1.074221224E-1,4.872897546E-1
3.807552458E0,-2.847298007E-1,-1.319548922E-1,-6.171753663E-1,6.923789322E-1
3.817522458E0,-3.034233492E-1,-2.026286803E-1,-2.384658265E-1,4.358784938E-1
3.827492458E0,-2.504957784E-1,-2.202904693E-1,8.023268652E-1,8.689099058E-1
3.837461458E0,-3.145454843E-2,-1.275547802E-1,1.599780661E-1,2.070086766E-1
3.847431458E0,1.455184500E-1,-1.159121973E-1,-4.559600294E-1,4.924538609E-1
3.857401458E0,3.313747211E-1,-3.999980642E-2,-3.198222309E-1,4.622720516E-1
3.867371458E0,3.046171679E-1,-1.419078582E-1,1.179623133E-1,3.561524485E-1
3.877341458E0,2.244207049E-1,-2.403339571E-1,1.467680365E-1,3.600915443E-1
3.887311458E0,6.861042447E-2,-4.006964593E-1,7.361059785E-2,4.131386728E-1
3.897280458E0,-1.094200794E-1,-5.045249926E-1,3.886205703E-1,6.461765777E-1
3.907250458E0,-1.701743677E-1,-3.705099893E-1,4.349001127E-1,5.961334378E-1
3.917220458E0,-2.333416922E-1,-1.973902877E-1,3.556539685E-1,4.689360471E-1
3.927190458E0,-2.406599576E-1,-9.057612048E-2,-3.921651524E-1,4.689506963E-1
3.937160458E0,-2.660627840E-1,1.889103130E-2,-7.364503795E-1,7.832658792E-1
3.947129458E0,-2.978158694E-1,8.841018389E-2,-4.933588207E-1,5.830210790E-1
3.957099458E0,1.722739201E-1,1.258927183E-1,-7.019061989E-1,7.336208776E-1
3.967069458E0,5.054109554E-1,1.996471851E-1,1.636828619E-1,5.675308905E-1
3.977039458E0,3.024251929E-1,-1.161724258E-1,3.925843978E-1,5.089985650E-1
3.987009458E0,6.149297431E-2,-3.964290883E-1,5.640124816E-1,6.921325648E-1
3.996979458E0,4.393141028E-2,-4.175820487E-1,7.046713471E-1,8.202843676E-1
4.006948458E0,2.070177466E-2,-3.364765995E-1,6.697225392E-2,3.437009576E-1
4.016918458E0,-4.642371286E-2,-2.037927513E-1,-1.675110340E-1,2.678555453E-1
4.026888458E0,-1.401829753E-2,-1.197281633E-1,-4.205574775E-1,4.374927858E-1
4.036858458E0,1.438970536E-1,2.778289899E-2,-3.430374312E-1,3.730320774E-1
4.046828458E0,9.870936904E-2,7.807978923E-2,1.307969517E-1,1.815153866E-1
4.056798458E0,-3.858354684E-2,-1.454796482E-1,-2.714803755E-1,3.104103935E-1
4.066767458E0,-6.321289625E-2,-3.317143712E-1,-3.677822632E-1,4.992935884E-1
4.076737458E0,-6.619786330E-2,-3.456284787E-1,6.796043336E-2,3.584129223E-1
4.086707458E0,-5.814394500E-2,-3.170216339E-1,5.399248767E-1,6.288102314E-1
4.096677458E0,-1.486281820E-1,-4.908073516E-1,5.838269413E-1,7.770689095E-1
4.106647458E0,-8.992688768E-2,-6.699726538E-1,-4.733438015E-2,6.776361454E-1
4.116617458E0,5.665604789E-2,-4.776573290E-1,-4.913988340E-1,6.876330750E-1
4.126586458E0,7.741713524E-4,-2.586658370E-1,-4.288932681E-2,2.621986059E-1
4.136556458E0,-2.396265719E-2,-1.591952701E-1,2.117545760E-1,2.660025252E-1
4.146526458E0,3.824283689E-2,-9.523493523E-2,7.775919735E-2,1.287583016E-1
4.156496458E0,2.476708788E-2,5.002110265E-6,6.234125912E-2,6.708085611E-2
4.166466458E0,2.721615762E-2,7.784909829E-2,-1.337188053E-1,1.571048065E-1
4.176436458E0,-2.816578198E-2,4.605840806E-2,-1.810654646E-1,1.889428239E-1
4.186405458E0,8.008244231E-2,-2.193198315E-2,-3.480268604E-1,3.577945010E-1
4.196375458E0,4.340497814E-2,-1.356931451E-1,-2.432453406E-1,2.818952243E-1
4.206345458E0,-2.227398131E-2,-3.548641193E-1,-2.548625886E-2,3.564747155E-1
4.216315458E0,1.000663616E-1,-4.781448772E-1,3.463294137E-1,5.988153831E-1
4.226285458E0,1.370462365E-1,-5.118189921E-1,4.218859649E-1,6.772947062E-1
4.236254458E0,1.561510634E-1,-3.855879850E-1,1.928721625E-1,4.585421680E-1
4.246224458E0,6.398630016E-2,-2.450081665E-1,5.801081121E-2,2.597854932E-1
4.256194458E0,-4.594266973E-3,-1.242373990E-1,-1.207233685E-1,1.732921530E-1
4.266164458E0,-8.008386757E-2,1.896755445E-2,-5.717699826E-2,1.002117912E-1
4.276134458E0,-1.242782929E-1,1.379258404E-1,-7.634943366E-2,2.007432877E-1
4.286104458E0,-1.048579721E-1,1.658269445E-1,-1.297415292E-1,2.352161437E-1
4.296073458E0,-6.466099575E-2,2.139914283E-1,-9.817124248E-2,2.441535759E-1
4.306043458E0,3.755794521E-2,2.437358854E-1,-5.224545658E-2,2.520860346E-1
4.316013458E0,1.250569228E-1,1.995081675E-1,-3.013479531E-2,2.373833371E-1
4.325983458E0,1.201813682E-1,1.193525162E-1,-1.017181635E-2,1.696822036E-1
4.335953458E0,5.613710750E-2,3.645616533E-2,3.982246220E-2,7.788616902E-2
4.345923458E0,3.143773768E-2,-4.967947908E-2,5.190865695E-2,7.842761413E-2
4.355892458E0,7.690294571E-3,-9.979427422E-2,1.203532398E-2,1.008111443E-1
4.365862458E0,-4.213894632E-2,-1.393788004E-1,2.246792614E-2,1.473327815E-1
4.375832458E0,-7.620515361E-2,-1.653427403E-1,2.543655753E-2,1.838272713E-1
4.385802458E0,-7.849254783E-2,-1.335946068E-1,2.094180286E-2,1.563558702E-1
4.395772458E0,4.701636471E-3,-6.573566831E-2,2.381512463E-2,7.007455768E-2
4.405742458E0,3.405630358E-2,-2.325802202E-2,-2.315146565E-2,4.729437349E-2
4.415711458E0,4.250823453E-2,3.585405744E-2,-2.330115438E-3,5.565871788E-2
4.425681458E0,7.800002955E-2,7.366740720E-2,-1.535011053E-2,1.083813517E-1
4.435651458E0,7.432582196E-2,1.066223238E-1,-2.240185261E-2,1.318881751E-1
4.445621458E0,4.494652346E-2,1.083783248E-1,-3.870272040E-3,1.173926330E-1
4.455591458E0,-1.544392180E-2,6.028058155E-2,-4.953527212E-2,7.953619564E-2
4.465561458E0,-6.558163986E-3,1.529183937E-2,-3.798819065E-2,4.147230998E-2
4.475530458E0,5.811766908E-4,-1.365126598E-2,-1.862689018E-2,2.310099277E-2
4.485500458E0,2.191792242E-2,-5.284972977E-2,3.199304044E-2,6.555184129E-2
4.495470458E0,2.093920816E-2,-7.763723723E-2,4.934991539E-2,9.434725852E-2
4.505440458E0,1.142633647E-2,-8.558812575E-2,3.242105663E-2,9.223347195E-2
4.515410458E0,1.124664422E-2,-4.939170470E-2,4.869561195E-3,5.088948935E-2
4.525379458E0,-1.035505347E-3,-5.633545602E-3,-1.161140084E-2,1.294734478E-2
4.535349458E0,5.147267394E-3,1.768610059E-2,-8.349823952E-3,2.022404697E-2
4.545319458E0,1.205260981E-2,4.041648449E-2,-2.616629004E-2,4.963297650E-2
4.555288792E0,1.098081518E-2,3.950206219E-2,-2.510034263E-2,4.807305295E-2
4.565258792E0,1.825354546E-2,3.946425629E-2,-1.818425596E-2,4.713052738E-2
4.575228792E0,3.611799527E-2,1.120127348E-2,1.311998248E-2,4.002639192E-2
4.585197792E0,1.479718320E-2,7.470274810E-4,1.656457722E-2,2.222385878E-2
4.595167792E0,1.932358593E-3,-2.819297154E-2,1.745101511E-2,3.321318386E-2
4.605137792E0,-1.038173139E-2,-2.906812613E-2,-1.010457337E-2,3.247828053E-2
4.615107792E0,1.496265940E-2,-3.258631356E-2,-1.489168882E-2,3.882668417E-2
4.625077792E0,1.917630918E-3,-9.845258491E-3,-1.638389826E-2,1.921037598E-2
4.635047792E0,2.348636493E-2,-5.508588776E-3,8.168560266E-3,2.546918265E-2
4.645016792E0,3.599242631E-2,-9.122771043E-3,-4.255603552E-3,3.737365202E-2
4.654986792E0,2.858093429E-2,-1.023778939E-2,-1.338544607E-2,3.317909437E-2
4.664956792E0,1.463601932E-2,-3.082579002E-3,8.618795872E-3,1.726264745E-2
4.674926792E0,1.510160387E-2,-7.086953279E-3,1.938878238E-2,2.557749457E-2
4.684896792E0,2.159599666E-2,1.945385093E-2,-3.222985268E-3,2.924426476E-2
4.694865792E0,6.427149810E-3,2.610938019E-2,-1.848655701E-2,3.263067236E-2
4.704835792E0,-4.827059247E-3,3.507264102E-2,-1.308899224E-2,3.774536219E-2
4.714805792E0,9.368810914E-3,7.676562751E-3,-2.325086832E-2,2.621654270E-2
4.724775792E0,1.755286630E-2,-1.645218277E-2,-1.393742323E-2,2.780340266E-2
4.734745792E0,3.192210641E-2,-2.170341183E-2,1.017824829E-2,3.992061749E-2
4.744715792E0,1.614050791E-2,-3.483916353E-2,2.663816035E-2,4.673194729E-2
4.754684792E0,1.502844058E-2,-4.104851369E-2,2.197734475E-2,4.892686567E-2
4.764654792E0,1.132050186E-2,-2.078312404E-2,1.158918142E-3,2.369462173E-2
4.774624792E0,-6.659138091E-3,-3.341628928E-3,-1.381930947E-2,1.569980631E-2
4.784594792E0,-5.047535822E-3,4.031006517E-3,-4.241570234E-3,7.727713081E-3
4.794564792E0,5.589974709E-3,1.520411287E-2,-6.181676388E-3,1.733856938E-2
4.804534792E0,1.918665145E-2,2.503394019E-2,-1.917886734E-4,3.154144160E-2
4.814503792E0,1.209876627E-2,1.681007805E-2,-1.234931946E-3,2.074810657E-2
4.824473792E0,1.651882276E-2,3.776588682E-3,-1.534894109E-3,1.701440646E-2
4.834443792E0,1.461423844E-2,1.532445587E-3,-3.367996216E-4,1.469822400E-2
4.844413792E0,8.436545469E-3,-4.196309131E-3,1.313167691E-2,1.616246418E-2
4.854383792E0,-1.552655026E-3,-2.051535811E-2,7.285045981E-3,2.182573140E-2
4.864353792E0,5.183447041E-3,-1.747254931E-2,-6.637174487E-3,1.939613848E-2
4.874322792E0,7.479977533E-3,-1.724241570E-2,-1.125998318E-2,2.190977371E-2
4.884292792E0,2.723749995E-2,-9.890419096E-3,6.713188291E-3,2.974506162E-2
4.894262792E0,2.571214411E-2,-1.765412363E-2,8.501851559E-3,3.232744834E-2
4.904232792E0,3.028488602E-2,-2.727267461E-2,1.791879237E-2,4.452029000E-2
4.914202792E0,8.173566945E-3,-7.227533134E-3,2.044420481E-2,2.317347497E-2
4.924171792E0,4.354092591E-3,2.406248013E-3,1.011042058E-2,1.126804136E-2
4.934141792E0,3.826527558E-3,2.118777878E-2,-1.293754935E-2,2.511860796E-2
4.944111792E0,1.788564596E-2,2.602925506E-2,-2.879461348E-2,4.273813539E-2
4.954081792E0,7.496897914E-3,1.410167517E-2,-7.674470544E-3,1.771886619E-2
4.964051792E0,1.980152272E-2,1.402424525E-2,-6.250673532E-4,2.427283391E-2
4.974021792E0,1.211853717E-2,-1.908446222E-2,1.772875786E-3,2.267639146E-2
4.983990792E0,2.166027948E-2,-3.741793181E-2,8.663819432E-3,4.409456991E-2
4.993960792E0,5.360361859E-3,-2.974758172E-2,1.435023665E-2,3.346014629E-2
5.003930792E0,8.837189376E-3,-2.761389619E-2,2.077632666E-2,3.566901916E-2
5.013900792E0,2.448093977E-2,-3.406274465E-2,-3.438162804E-4,4.194884021E-2
5.023870792E0,2.291724812E-2,-3.461241033E-3,-2.589731812E-3,2.332138851E-2
5.033839792E0,4.306364693E-3,2.562852893E-3,-5.732025504E-3,7.613744690E-3
5.043809792E0,1.092183139E-2,-7.450723182E-3,6.554728746E-3,1.475683387E-2
5.053779792E0,7.502708584E-3,6.755059836E-3,8.350993395E-3,1.310192964E-2
5.063749792E0,-2.495080009E-3,1.093822187E-2,6.697985530E-3,1.306648890E-2
5.073719792E0,1.270015240E-2,-4.269929230E-4,1.898006201E-3,1.284829255E-2
5.083689792E0,-3.655386865E-3,1.040168501E-2,-5.589938164E-3,1.236140417E-2
5.093658792E0,-9.563377015E-3,5.090183951E-3,-2.638322175E-2,2.852091412E-2
5.103628792E0,6.635456868E-3,-1.130519860E-2,4.772497416E-3,1.395039551E-2
5.113598792E0,1.201113112E-2,-1.646046937E-2,1.487531662E-3,2.043103212E-2
5.123568792E0,1.425222270E-3,-3.055599583E-2,2.707670152E-2,4.085153492E-2
5.133538792E0,1.344274879E-2,-2.759376897E-2,5.660689473E-3,3.121164825E-2
5.143508792E0,9.130025245E-3,-1.871857270E-2,-1.984544992E-3,2.092082082E-2
5.153477792E0,6.535030939E-3,-1.929910985E-2,-1.844913483E-2,2.748695775E-2
5.163447792E0,1.023503937E-2,5.810579192E-4,-1.800650060E-2,2.072022498E-2
5.173417792E0,8.050848506E-3,2.074588459E-2,-1.950923502E-2,2.959422478E-2
5.183387792E0,5.404581428E-3,1.975987044E-2,2.193875313E-3,2.060279275E-2
5.193357792E0,7.431701459E-3,2.683406948E-2,-2.039742708E-2,3.451597461E-2
5.203326792E0,7.535416447E-3,1.819579507E-2,-1.514662743E-2,2.484531710E-2
5.213296792E0,2.820243672E-2,1.597751677E-3,-3.116565943E-4,2.824937835E-2
5.223266792E0,3.104502406E-2,-2.729005180E-4,1.361114860E-2,3.389884009E-2
5.233236792E0,4.153277278E-3,-1.541461263E-2,1.045832992E-2,1.908498518E-2
5.243206792E0,1.394370899E-2,-9.825085597E-3,-6.458834410E-3,1.823940430E-2
5.253176792E0,1.859476704E-2,-1.626349130E-2,-2.128094137E-2,3.260590400E-2
5.263145792E0,-9.110875614E-3,-1.714989264E-2,-1.471100986E-2,2.436269040E-2
5.273115792E0,-1.453033090E-2,7.138037844E-2,-3.838971895E-1,3.907471574E-1
5.283085792E0,1.917535901E-2,1.375021274E-1,6.090108991E-2,1.516030085E-1
5.293055792E0,-8.871139772E-3,6.094013834E-2,2.084766269E-1,2.173819255E-1
5.303025792E0,7.125683773E-2,-3.797915488E-2,2.056611925E-1,2.209445162E-1
5.312995792E0,9.771760818E-2,-1.517561682E-1,1.293047422E-1,2.220323893E-1
5.322964792E0,-7.117157802E-4,-2.039308552E-1,-1.342035395E-1,2.441288395E-1
5.332934792E0,-9.376090698E-2,-1.496181704E-1,6.478539526E-2,1.880793769E-1
5.342904792E0,-2.570615072E-2,-3.887376060E-2,-2.895658135E-2,5.486765032E-2
5.352874792E0,-3.825771075E-2,4.837968872E-2,-1.051808846E-1,1.219313955E-1
5.362844792E0,-1.392810423E-2,4.548910853E-2,-9.180128574E-3,4.845127287E-2