"Time (s)","Linear Acceleration x (m/s^2)","Linear Acceleration y (m/s^2)","Linear Acceleration z (m/s^2)","Absolute acceleration (m/s^2)"
7.347250008E-3,5.196738127E-1,2.137513270E-1,-1.220599836E0,1.343731543E0
1.731625000E-2,1.807468645E-1,1.317098847E-1,-1.073145921E0,1.096202121E0
2.728525001E-2,-2.284512272E-1,-3.253975511E-4,3.853794587E-1,4.480037904E-1
3.725325000E-2,-1.878870091E-1,-5.766140353E-2,4.517459410E-1,4.926466897E-1
4.722225001E-2,-2.480737885E-1,-1.300809235E-1,-1.863285434E-1,3.364223199E-1
5.719125000E-2,-3.031702744E-1,-6.853854027E-2,-2.490691674E-1,3.983028959E-1
6.716025001E-2,-2.558653861E-1,-3.152840607E-2,-9.837472558E-2,2.759324607E-1
7.712925000E-2,-2.332533992E-1,-8.911997192E-3,5.971761346E-2,2.409414146E-1
8.709825001E-2,-2.218592224E-1,-3.189933881E-2,-6.940644979E-3,2.242481994E-1
9.706625000E-2,-2.215227152E-1,-4.164562404E-2,-1.768455291E-1,2.864978403E-1
1.070352500E-1,-2.011485856E-1,-4.719474133E-2,-2.699016273E-2,2.083664224E-1
1.170042500E-1,-1.012745060E-1,2.858930312E-2,2.003156680E-1,2.262747018E-1
1.269732500E-1,1.847653269E-1,1.342188519E-1,-6.170742095E-2,2.365602080E-1
1.369422500E-1,3.842118428E-1,1.603768462E-1,-2.315006232E-1,4.763738149E-1
1.469112500E-1,4.994121507E-1,2.038053594E-1,2.981390011E-1,6.163083520E-1
1.568802500E-1,4.447919936E-1,1.375911239E-1,2.440008008E-1,5.256497178E-1
1.668482500E-1,2.280231196E-1,3.257611748E-2,-1.122267795E-1,2.562237236E-1
1.768172500E-1,-3.044469774E-2,-1.784716398E-2,1.953554749E-2,4.033656528E-2
1.867862500E-1,-2.369562947E-1,-3.066736702E-2,9.176503301E-2,2.559484211E-1
1.967552500E-1,-3.354338947E-1,-1.907800287E-2,-9.492603779E-2,3.491286591E-1
2.067242500E-1,-3.202797390E-1,4.371089716E-2,-2.141911107E-1,3.877725953E-1
2.166932500E-1,-2.050721221E-1,9.022893291E-2,-1.373043180E-1,2.627704537E-1
2.266622500E-1,-2.402204297E-2,1.490515204E-1,5.323889852E-3,1.510687197E-1
2.366302500E-1,1.566370584E-1,1.630398144E-1,-2.717201114E-2,2.277179557E-1
2.465992500E-1,2.639386185E-1,1.616118147E-1,3.198193073E-2,3.111347246E-1
2.565682500E-1,2.427125861E-1,7.514984082E-2,8.271120429E-2,2.672041193E-1
2.665372500E-1,1.012234160E-1,-2.779123127E-2,8.398765147E-2,1.344338427E-1
2.765062500E-1,-1.737450795E-2,-9.248376545E-2,3.240526915E-2,9.952498112E-2
2.864752500E-1,-8.708236344E-2,-1.340486979E-1,-8.119852960E-2,1.792919202E-1
2.964432500E-1,-1.143829220E-1,-1.336710043E-1,5.352541208E-3,1.760114767E-1
3.064122500E-1,-6.115080256E-2,-9.990501501E-2,5.991641879E-2,1.315690310E-1
3.163812500E-1,-1.857554432E-2,-1.616031535E-2,4.306825161E-2,4.960928276E-2
3.263502500E-1,5.550820291E-2,6.116092555E-2,-3.472544432E-2,8.959729844E-2
3.363192500E-1,6.617105747E-2,1.126431378E-1,-2.913784504E-2,1.338510342E-1
3.462882500E-1,4.234674174E-2,1.209013066E-1,1.401109815E-2,1.288669211E-1
3.562572500E-1,2.782817837E-2,1.328149354E-1,-2.163411319E-2,1.374126975E-1
3.662252500E-1,-2.211588722E-2,8.516020093E-2,-1.131716895E-1,1.433499341E-1
3.761942500E-1,-3.710453019E-2,3.229307570E-2,-4.022650480E-2,6.354337563E-2
3.861632500E-1,-6.820758786E-3,5.995442569E-3,2.599789023E-2,2.753830748E-2
3.961322500E-1,1.382044237E-3,-3.909514166E-2,5.049187660E-2,6.387307532E-2
4.061012500E-1,1.243764896E-2,-5.680284955E-2,-1.030162454E-2,5.905406249E-2
4.160702500E-1,1.188908877E-2,-8.027646024E-2,3.223160684E-2,8.731859470E-2
4.260382500E-1,8.084396906E-3,-6.225424524E-2,6.820309281E-2,9.269633430E-2
4.360072500E-1,-2.067845888E-2,-6.995736714E-2,-3.339344859E-2,8.022938544E-2
4.459762500E-1,-3.651750628E-3,-3.647354253E-2,-4.803487659E-2,6.042353809E-2
4.559452500E-1,3.796611741E-2,1.938954983E-2,1.950104892E-2,4.687933045E-2
4.659142500E-1,5.218952430E-2,4.343991525E-2,2.777310491E-2,7.336292007E-2
4.758832500E-1,4.591018114E-2,6.284236550E-2,-1.752702892E-2,7.977533690E-2
4.858522500E-1,3.482724069E-2,6.233636208E-2,1.171372712E-2,7.236000369E-2
4.958202500E-1,-8.924934156E-3,6.767395634E-2,1.563545465E-3,6.827784041E-2
5.057892500E-1,-7.326378487E-2,5.527701862E-2,-5.157945871E-2,1.052785426E-1
5.157582500E-1,-9.522029892E-2,2.837127507E-2,-7.545422494E-2,1.247604690E-1
5.257272500E-1,-5.786168894E-2,1.361991942E-2,-4.352141082E-2,7.367218235E-2
5.356962500E-1,-1.566549473E-2,1.647840388E-2,-3.345367491E-2,4.044865739E-2
5.456652500E-1,2.462034104E-2,-2.282723755E-2,-2.252347469E-3,3.364991881E-2
5.556342500E-1,9.891239533E-2,-2.063489713E-2,6.509003520E-2,1.201922361E-1
5.656022500E-1,8.915863663E-2,-5.072989482E-2,6.783004045E-2,1.229784497E-1
5.755712500E-1,5.729101896E-2,-7.877149656E-2,2.960094452E-2,1.018009108E-1
5.855402500E-1,-4.660980050E-3,-5.528805524E-2,-1.590442657E-3,5.550696619E-2
5.955092500E-1,-5.586499270E-2,-1.976475835E-2,-1.618860126E-2,6.142974762E-2
6.054782500E-1,-3.857113978E-2,2.049215198E-2,-3.816068351E-2,5.799912829E-2
6.154472500E-1,-3.161406778E-3,5.688668400E-2,-4.788986564E-2,7.442800911E-2
6.254152500E-1,3.600485165E-2,9.067101896E-2,-4.520599365E-2,1.075228575E-1
6.353842500E-1,3.041432876E-2,9.885850959E-2,-1.738552630E-2,1.048822808E-1
6.453532500E-1,1.200051477E-2,7.875366256E-2,-1.010925114E-2,8.030161069E-2
6.553222500E-1,-3.607415942E-2,3.945997138E-2,-4.250107169E-2,6.829916115E-2
6.652912500E-1,-5.912318917E-2,1.031975091E-2,5.935508609E-3,6.030985839E-2
6.752602500E-1,-3.950092016E-2,-2.158039190E-2,-3.500377178E-2,5.702017228E-2
6.852292500E-1,-1.448596515E-2,-4.956487365E-2,2.623060942E-3,5.170493531E-2
6.951972500E-1,1.869148364E-2,-6.142971475E-2,-5.792836547E-3,6.447122125E-2
7.051662500E-1,9.300467927E-2,-4.870544259E-2,5.497376740E-2,1.185082512E-1
7.151352500E-1,1.285008962E-1,-5.654407371E-2,1.036851668E-1,1.745288699E-1
7.251042500E-1,8.992584614E-2,-2.854110014E-2,-1.801994920E-2,9.605191706E-2
7.350732500E-1,8.018694302E-2,4.792074624E-2,4.331851244E-2,1.029700795E-1
7.450422500E-1,-2.875233080E-2,-7.413903996E-3,3.247017324E-2,4.399971192E-2
7.550112500E-1,-1.438303588E-1,-2.942260444E-2,-1.322382903E-1,1.975849873E-1
7.649792500E-1,-8.949565552E-2,6.868764427E-2,8.634466410E-2,1.420664135E-1
7.749482500E-1,-5.032663794E-2,9.610728499E-2,-1.411061776E-1,1.779897021E-1
7.849172500E-1,-2.022725483E-2,9.771541547E-2,-1.647628427E-1,1.926246053E-1
7.948862500E-1,5.503828777E-2,9.270248786E-2,6.426967084E-2,1.255131665E-1
8.048552500E-1,1.768738881E-2,1.689436018E-2,-2.238898873E-3,2.456167334E-2
8.148241250E-1,2.966864431E-2,-2.180159938E-2,8.483491302E-2,9.247973106E-2
8.247921250E-1,1.337389782E-2,-6.334825929E-2,-1.265922189E-3,6.475697381E-2
8.347611250E-1,-1.682715375E-2,-8.142744809E-2,1.441689491E-2,8.438856122E-2
8.447301250E-1,3.122316314E-2,2.496552777E-2,3.767524767E-1,3.788675127E-1
8.546991250E-1,8.301050864E-2,2.074088157E-1,3.088130933E-1,3.811491676E-1
8.646681250E-1,1.720086027E-1,4.435067391E-1,5.707057893E-2,4.791056648E-1
8.746371250E-1,1.700464233E-1,5.946653402E-1,-1.335673624E-1,6.327581633E-1
8.846061250E-1,5.924110193E-2,5.782933191E-1,-2.146015853E-1,6.196664518E-1
8.945741250E-1,-1.470713608E-2,5.622279479E-1,-1.002247846E-1,5.712806427E-1
9.045431250E-1,1.197533154E-1,4.929867550E-1,-1.945193231E-1,5.433365111E-1
9.145121250E-1,7.633642361E-2,3.130964346E-1,-4.577831912E-1,5.598411177E-1
9.244811250E-1,6.168870986E-2,5.351678744E-1,-3.041645569E-1,6.186487116E-1
9.344501250E-1,-2.415989108E-2,7.029304849E-1,2.348662806E-1,7.415235240E-1
9.444191250E-1,-1.169561537E-1,4.723085154E-1,-3.600031275E-1,6.052737624E-1
9.543881250E-1,6.832950231E-2,2.942784501E-1,-5.845461488E-2,3.077103656E-1
9.643561250E-1,2.214330335E-1,3.275768083E-1,1.032081510E0,1.105229115E0
9.743251250E-1,1.039010205E-1,3.136071523E-1,2.288933498E-1,4.019166998E-1
9.842941250E-1,-9.633017354E-2,1.933525843E-1,-6.156521666E-1,6.524510054E-1
9.942631250E-1,-2.426869498E-1,1.309982786E-1,-5.301623654E-1,5.976032449E-1
1.004232125E0,-2.452609672E-1,-2.073679948E-1,-2.087450141E-1,3.830520959E-1
1.014201125E0,-1.647969758E-1,-3.266550313E-1,3.817799127E-1,5.287886671E-1
1.024169125E0,-2.467826502E-1,-3.499773453E-1,1.904408902E-1,4.686721150E-1
1.034138125E0,-2.319333537E-1,-3.394190280E-1,-2.396411169E-1,4.758426442E-1
1.044107125E0,-2.544611773E-1,-1.567024559E-1,2.872900772E-1,4.145379824E-1
1.054076125E0,-1.619844285E-1,-8.553416692E-2,1.737067437E-1,2.524461955E-1
1.064045125E0,-1.722044661E-1,-1.112174404E-1,-2.278940606E-1,3.065279760E-1
1.074014125E0,-1.457569433E-1,-5.509798419E-2,1.024397099E-1,1.864799414E-1
1.083983125E0,-6.951716317E-2,5.220967893E-2,3.363868082E-1,3.474400254E-1
1.093951125E0,-2.317388607E-2,2.156106320E-1,-9.230180740E-2,2.356790132E-1
1.103920125E0,1.318224254E-1,4.877378923E-1,-2.457415169E-1,5.618311993E-1
1.113889125E0,1.148743256E-1,5.090651363E-1,-1.532952833E-1,5.439143936E-1
1.123858125E0,1.482278670E-1,5.129298169E-1,-3.225031793E-2,5.348911858E-1
1.133827125E0,2.153242098E-1,6.381021126E-1,1.694335985E-1,6.944397495E-1
1.143796125E0,1.240471086E-1,4.958220334E-1,-9.415595949E-2,5.197042607E-1
1.153765125E0,1.439421868E-1,5.121346321E-1,-3.071343577E-1,6.142741637E-1
1.163733125E0,2.647905396E-1,4.063407035E-1,-1.320985419E-1,5.026696947E-1
1.173702125E0,3.512480915E-1,4.432304582E-1,4.527440608E-1,7.244347074E-1
1.183671125E0,2.262049827E-1,2.520803373E-1,1.025133848E-2,3.388484626E-1
1.193640125E0,8.239057587E-2,2.686262765E-1,-9.635568202E-2,2.970398978E-1
1.203609125E0,-1.770461251E-1,3.190122088E-1,-3.910033107E-3,3.648690288E-1
1.213578125E0,-5.693486871E-2,3.877246672E-1,-1.296000266E-1,4.127567852E-1
1.223547125E0,-6.255647320E-2,3.735894254E-1,-4.461893320E-2,3.814095178E-1
1.233515125E0,-1.757102922E-1,2.462361183E-1,-1.917389721E-1,3.581482460E-1
1.243484125E0,-3.643139141E-1,-2.666845989E-1,-8.187721592E-1,9.350043594E-1
1.253453125E0,-2.806736603E-1,-4.513236259E-1,7.241390669E-1,8.982472417E-1
1.263422125E0,-2.470620375E-1,-1.168059533E-1,1.603055102E0,1.626182321E0
1.273391125E0,-6.461231768E-2,5.275507797E-2,-5.463094515E-1,5.526408116E-1
1.283360125E0,1.591648098E-1,2.109073144E-1,-1.401686350E0,1.426373007E0
1.293328125E0,2.550624721E-1,1.042113432E-1,3.261553502E-1,4.269592266E-1
1.303297125E0,4.106226195E-1,1.464570742E-1,9.417548919E-1,1.037768224E0
1.313266125E0,4.127523948E-1,2.205129376E-1,4.188898516E-1,6.280598720E-1
1.323235125E0,5.726165132E-1,4.323417732E-1,-6.772660321E-1,9.866602041E-1
1.333204125E0,1.982930065E-1,3.624141172E-1,-4.306550342E-1,5.967644990E-1
1.343173125E0,-5.067803733E-2,2.304738522E-1,5.151186490E-1,5.665983432E-1
1.353142125E0,-2.895036503E-1,-6.480688378E-3,2.783795053E-1,4.016833477E-1
1.363110125E0,-1.233835227E-1,2.225706093E-3,-1.509207290E-1,1.949500293E-1
1.373079125E0,-1.842141172E-1,1.001872893E-1,-1.217717743E-1,2.424885542E-1
1.383048125E0,-8.031545386E-2,3.547625970E-1,3.759777206E-1,5.231312634E-1
1.393017125E0,-2.178400291E-1,4.618667770E-1,-1.093189591E-1,5.222315892E-1
1.402986125E0,-3.141186375E-2,5.987187032E-1,-9.333770013E-1,1.109343688E0
1.412955125E0,-4.133064184E-2,4.047817262E-1,-3.525338942E-1,5.383647596E-1
1.422924125E0,1.244806431E-1,3.321196564E-1,2.095794117E-1,4.119738177E-1
1.432892125E0,1.324713384E-1,4.057032839E-1,1.447507471E-1,4.506623890E-1
1.442861125E0,-9.664044142E-2,1.397848165E-1,-2.789712435E-1,3.266559727E-1
1.452830125E0,-7.054497577E-2,5.891365785E-2,1.287112498E-1,1.581581440E-1
1.462799125E0,6.026096597E-2,2.683903048E-1,7.883204448E-1,8.349334485E-1
1.472768125E0,-3.231882537E-1,3.624635993E-1,-4.945838124E-1,6.931404299E-1
1.482737125E0,-2.675472459E-1,5.675651402E-1,-1.419342602E0,1.551852164E0
1.492706125E0,-6.463268061E-1,4.519097362E-2,7.653198373E-1,1.002743745E0
1.502674125E0,-1.242781102E-1,-3.958253632E-1,-2.824058980E-1,5.018723524E-1
1.512643125E0,4.731179528E-2,-2.039331210E-1,1.729377764E0,1.742003035E0
1.522612125E0,1.152783317E-1,-5.739988681E-2,-7.296038747E-1,7.408816739E-1
1.532581125E0,6.463134306E-1,1.976471449E-1,-1.396929055E0,1.551836406E0
1.542550125E0,5.376959912E-1,1.662729957E-1,4.211720198E-1,7.029577216E-1
1.552519125E0,3.334249376E-1,2.353860249E-1,5.910774887E-1,7.182975479E-1
1.562487125E0,5.126252866E-1,1.913117599E-1,6.380458331E-1,8.405280240E-1
1.572456125E0,1.880438607E-1,2.780524267E-1,-1.223583670E0,1.268791016E0
1.582425125E0,7.532529384E-2,4.103375678E-1,2.450357580E-1,4.838319358E-1
1.592394125E0,-5.042065021E-2,2.983095571E-1,-3.539465815E-1,4.656275511E-1
1.602363125E0,-1.273383236E-1,-7.384364594E-2,-4.377997470E-1,4.618836987E-1
1.612332125E0,-2.673470519E-1,-3.801576758E-1,4.859843123E-1,6.724396303E-1
1.622301125E0,-2.916825056E-1,-5.493696649E-1,7.207248777E-1,9.520136880E-1
1.632269125E0,-2.989236975E-1,-5.249678087E-1,7.175235271E-1,9.379693967E-1
1.642238125E0,-3.271874934E-1,-3.788564511E-1,-1.899620032E-1,5.354151931E-1
1.652207125E0,2.192299854E-1,1.470659156E-1,-6.317799568E-1,6.847160607E-1
1.662176125E0,2.776045299E-1,1.063066929E-1,-4.373407406E-1,5.288027150E-1
1.672145125E0,1.940385358E-1,2.055761155E-1,1.065906483E-1,3.021159694E-1
1.682114125E0,4.142525710E-2,1.028498555E-1,3.172307450E-1,3.360498330E-1
1.692083125E0,-2.414370161E-1,-2.375568768E-1,-3.655983281E-1,4.983846306E-1
1.702051125E0,-6.737300746E-2,-1.531568139E-1,-1.056901771E-1,1.979053949E-1
1.712020125E0,-5.453698039E-3,-2.271927236E-1,5.206477761E-1,5.680848381E-1
1.721989125E0,-1.208191898E-2,5.679290928E-3,5.347652936E-1,5.349319081E-1
1.731958125E0,-1.006011260E-1,-1.673853189E-2,-3.583097738E-1,3.725408152E-1
1.741927125E0,-3.507814106E-2,-8.519349352E-2,-5.732762253E-1,5.806324464E-1
1.751896125E0,4.841648050E-2,-1.459404727E-1,8.475515699E-1,8.613863482E-1
1.761865125E0,2.289436724E-1,4.699372502E-1,2.048343962E-1,5.614386468E-1
1.771833125E0,1.692567933E-2,2.758144414E-1,-7.698794961E-1,8.179697569E-1
1.781802125E0,-1.511790298E-1,2.277760565E-1,-8.278312504E-1,8.718036534E-1
1.791771125E0,2.654999164E-1,4.726214511E-1,-5.678874314E-2,5.450561467E-1
1.801740125E0,2.431453897E-1,2.146972238E-1,5.219283164E-1,6.145109811E-1
1.811709042E0,7.156261057E-4,-1.718452826E-2,5.814699286E-1,5.817242457E-1
1.821678042E0,-3.113920078E-2,-1.808169214E-1,-3.117133123E-1,3.617037433E-1
1.831647042E0,-4.850744125E-2,1.015318566E-1,-4.232460272E-1,4.379485008E-1
1.841615042E0,9.774501700E-2,1.729405392E-2,8.425019145E-2,1.301970330E-1
1.851584042E0,-4.788770948E-2,1.674255185E-2,7.747268379E-1,7.763859988E-1
1.861553042E0,-1.165003267E-1,-1.014676468E-1,-6.008879471E-1,6.204307652E-1
1.871522042E0,-4.590104487E-2,-2.014490777E-1,-7.406364012E-1,7.689154151E-1
1.881491042E0,-7.359375056E-2,-1.284845971E-1,5.854612380E-1,6.038950182E-1
1.891460042E0,3.455727839E-1,-2.315043874E-1,5.224007714E-1,6.677704668E-1
1.901429042E0,5.667076825E-1,-9.786623709E-2,-1.756018263E-1,6.013080735E-1
1.911397042E0,3.316936136E-1,-3.224030092E-1,3.430771923E-1,5.759047782E-1
1.921366042E0,4.684533365E-3,-4.512185222E-1,6.736781806E-1,8.108405457E-1
1.931335042E0,-1.306992301E-1,-4.171810759E-1,4.795897973E-1,6.489443061E-1
1.941304042E0,1.526166409E-1,-1.834766005E-1,-5.824148387E-1,6.294144472E-1
1.951273042E0,7.071015961E-2,1.546492061E-1,-2.844085693E-1,3.313676779E-1
1.961242042E0,-2.629853214E-1,1.561441564E-1,8.842744231E-3,3.059746247E-1
1.971211042E0,-2.715387015E-1,2.872270004E-1,-4.891061407E-1,6.288540634E-1
1.981179042E0,-5.748440100E-1,-5.052370738E-2,-4.173099339E-1,7.121417428E-1
1.991148042E0,-1.467561959E-1,1.338178791E-1,-5.501060486E-2,2.060843818E-1
2.001117042E0,1.546588540E-2,3.237089483E-1,4.960409385E-1,5.925228177E-1
2.011086042E0,-2.660735648E-1,2.985233825E-2,1.044704479E-1,2.874028157E-1
2.021055042E0,-2.711355360E-1,3.946643986E-2,3.413662970E-2,2.761111882E-1
2.031024042E0,-1.291231496E-1,4.968522031E-1,-1.399115914E-1,5.320809646E-1
2.040993042E0,-2.187685304E-1,6.043137942E-1,-1.186975422E0,1.349802017E0
2.050961042E0,-3.884462867E-1,3.030307087E-1,-1.008907825E-1,5.028887333E-1
2.060930042E0,1.191284674E-1,1.851506218E-2,4.568213242E-1,4.724617673E-1
2.070899042E0,2.474269403E-1,-1.093755675E-1,7.190385407E-1,7.682444459E-1
2.080868042E0,5.287743095E-1,-1.749143399E-2,-4.410794502E-1,6.888100624E-1
2.090837042E0,5.788161698E-1,4.438756619E-2,-5.530910522E-1,8.018155190E-1
2.100806042E0,4.041744198E-1,-9.946099207E-2,-8.842510343E-2,4.255213854E-1
2.110775042E0,3.567537201E-1,9.528352194E-2,9.580393875E-1,1.026738348E0
2.120743042E0,1.774739586E-1,9.728995744E-2,2.552286243E-1,3.257360779E-1
2.130712042E0,2.420510833E-1,3.063431563E-1,-4.538374901E-1,5.986679579E-1
2.140681042E0,-2.564685264E-1,2.339408490E-1,-4.443860507E-1,5.639001578E-1
2.150650042E0,-3.556333570E-1,1.009432612E-1,-2.183367866E-1,4.293431949E-1
2.160619042E0,-3.409194601E-1,-1.664276180E-1,-5.032026082E-1,6.301881427E-1
2.170588042E0,-1.266463056E-1,-3.384609983E-1,1.957922620E-1,4.110106372E-1
2.180556042E0,-1.784922512E-1,-4.867827496E-1,1.013969759E0,1.138837830E0
2.190525042E0,-1.857946926E-1,-5.322884130E-1,7.663723361E-1,9.514079988E-1
2.200494042E0,2.468564713E-1,-1.925271402E-1,-4.272425991E-1,5.296612650E-1
2.210463042E0,2.230275327E-1,-1.585801795E-1,-6.775771040E-1,7.307528211E-1
2.220432042E0,1.216247899E-1,-5.383692250E-2,5.213342392E-1,5.380338212E-1
2.230401042E0,-8.218579542E-2,2.962802444E-2,1.193381631E-1,1.478983502E-1
2.240370042E0,-1.092114069E-1,-6.751659315E-2,-3.515948313E-1,3.743054196E-1
2.250338042E0,-2.080409362E-1,-8.479723502E-2,-2.438060886E-1,3.315313123E-1
2.260307042E0,-7.775006108E-2,-1.426944275E-1,2.294277853E-1,2.811474352E-1
2.270276042E0,-1.755782913E-1,8.135761041E-2,3.085476297E-1,3.642093312E-1
2.280245042E0,-5.400674757E-2,9.755337451E-2,-4.838033009E-1,4.964866802E-1
2.290214042E0,-1.168357010E-1,-1.103763184E-1,-4.264140487E-1,4.556999601E-1
2.300183042E0,-1.077339617E-1,-1.614260560E-1,4.966057795E-1,5.331812809E-1
2.310152042E0,3.918895293E-2,1.878699060E-1,3.503815341E-1,3.994973029E-1
2.320120042E0,6.505911805E-2,4.037403736E-2,-8.147790956E-1,8.183689427E-1
2.330089042E0,2.012246177E-1,3.212390844E-2,-7.995131850E-2,2.188961068E-1
2.340058042E0,2.190472233E-1,2.629512613E-1,4.384961504E-1,5.562408883E-1
2.350027042E0,1.635800606E-1,-2.504523262E-2,1.999747753E-1,2.595681233E-1
2.359996042E0,3.327959234E-1,9.557694253E-2,-2.217515606E-1,4.111712942E-1
2.369965042E0,2.929960095E-1,1.275776940E-1,3.919482207E-1,5.057134933E-1
2.379934042E0,1.325878807E-1,2.886162988E-1,2.308632767E-1,3.926534943E-1
2.389902042E0,-1.142093876E-1,9.941472597E-2,-8.471463579E-1,8.605719166E-1
2.399871042E0,-1.444010105E-1,3.502087489E-2,-6.048582065E-1,6.228415236E-1
2.409840042E0,-1.783807155E-1,1.887737028E-1,5.240093404E-1,5.848426963E-1
2.419809042E0,4.784893513E-2,1.563604303E-1,4.441018760E-1,4.732489631E-1
2.429778042E0,-2.256868098E-2,-6.170248736E-2,-3.802058423E-1,3.858406728E-1
2.439747042E0,4.331525993E-2,-2.571154477E-1,-4.647472250E-1,5.328926237E-1
2.449716042E0,2.641537778E-1,-6.385407999E-2,9.909270519E-1,1.027516902E0
2.459684042E0,1.759651942E-1,-1.193781435E-1,7.633411396E-1,7.924043072E-1
2.469653042E0,-9.086171128E-3,-2.376145085E-1,-2.942038250E-1,3.782844218E-1
2.479622042E0,1.631063265E-1,-1.667093077E-1,-5.614595872E-1,6.079741237E-1
2.489591042E0,2.476809653E-1,1.819982417E-3,1.073969793E-1,2.699690428E-1
2.499560042E0,-1.836665254E-2,-6.267118827E-2,4.070071399E-2,7.695167239E-2
2.509529042E0,-3.850369580E-2,9.381437246E-2,-3.512831748E-1,3.656275973E-1
2.519498042E0,-2.446665429E-1,-7.297105864E-2,-3.856080848E-1,4.624717155E-1
2.529466042E0,-3.958486059E-1,-3.704386532E-1,8.821168005E-2,5.492742622E-1
2.539435042E0,6.354114432E-2,-6.289572135E-2,3.990204281E-1,4.089139895E-1
2.549404042E0,-5.089844082E-2,-1.583937630E-3,3.448284334E-1,3.485682266E-1
2.559373042E0,-3.493626202E-1,-3.085310748E-1,-1.054697371E-1,4.778802465E-1
2.569342042E0,-3.668271205E-1,-2.571510061E-1,-1.912384504E-1,4.870943658E-1
2.579311042E0,-1.839440854E-1,6.144182579E-1,-3.414499122E-1,7.265901629E-1
2.589280042E0,-2.181210975E-1,2.310132578E-1,-1.456157257E0,1.490415343E0
2.599248042E0,-3.389675499E-1,-1.621255657E-1,2.366286314E-1,4.440459527E-1
2.609217042E0,2.652630677E-1,-1.183101861E-1,1.141215697E0,1.177597156E0
2.619186042E0,1.427655077E-1,-4.367012744E-1,9.013792831E-1,1.011718639E0
2.629155042E0,2.264929947E-1,-1.558562541E-1,-3.038803822E-1,4.097969439E-1
2.639124042E0,2.317060432E-1,5.207917638E-2,-1.205195346E0,1.228371179E0
2.649093042E0,2.198199694E-1,1.923952124E-1,-2.325320721E-2,2.930485427E-1
2.659062042E0,2.480522269E-1,2.754905057E-1,5.551533651E-1,6.675478895E-1
2.669030042E0,3.269237109E-1,3.466296682E-1,-1.354156673E-2,4.766703406E-1
2.678999042E0,2.198919267E-1,3.074938518E-1,-5.757934517E-1,6.887982486E-1
2.688968042E0,5.133007497E-2,2.972104267E-1,1.079284912E-1,3.203394662E-1
2.698937042E0,-3.728455134E-2,2.115445147E-1,3.197280908E-1,3.851847239E-1
2.708906042E0,-1.429270736E-1,-6.592677176E-2,-4.073141187E-1,4.366683855E-1
2.718875042E0,-2.429484482E-1,-3.528234775E-1,-2.284401906E-1,4.854825182E-1
2.728844042E0,4.560418904E-2,-2.668796766E-1,6.845329517E-1,7.361316905E-1
2.738812042E0,-7.455788333E-2,-3.087518437E-1,1.004091473E0,1.053131647E0
2.748781042E0,-8.292210605E-2,-1.462303850E-1,3.452605426E-2,1.716142465E-1
2.758750042E0,2.803853195E-1,9.538643293E-2,-1.004796647E0,1.047535585E0
2.768719042E0,8.681755766E-2,6.395077832E-2,-2.275502443E-1,2.518056871E-1
2.778688042E0,5.083733741E-2,-6.247823015E-2,2.886659271E-1,2.996931457E-1
2.788657042E0,-5.856425017E-3,1.165902641E-1,1.138944054E-1,1.630936019E-1
2.798626042E0,-1.224364931E-1,-1.071663798E-1,-5.349524045E-1,5.591506084E-1
2.808594042E0,-1.393165276E-1,-1.352364867E-1,2.558548611E-1,3.211848567E-1
2.818563125E0,-4.271950174E-2,-2.828679742E-1,6.241037321E-1,6.865454938E-1
2.828532125E0,-1.044988800E-2,3.874778051E-2,2.897956091E-1,2.925612512E-1
2.838501125E0,-4.171297666E-2,2.040789725E-1,-4.920010972E-1,5.342782787E-1
2.848470125E0,-4.804543812E-2,1.347161941E-2,-6.624702376E-1,6.643467953E-1
2.858439125E0,-5.256288730E-2,-9.306176271E-2,1.900783628E-1,2.180668081E-1
2.868408125E0,1.860642493E-2,2.060161551E-1,3.987695825E-1,4.492282662E-1
2.878376125E0,-2.761749588E-2,1.741811356E-1,-7.398429340E-1,7.605717330E-1
2.888345125E0,-1.591851106E-1,-2.484082493E-1,-3.038593322E-1,4.235292806E-1
2.898314125E0,2.171636890E-1,1.965037950E-1,8.141908658E-1,8.652632982E-1
2.908283125E0,2.974598105E-1,2.428206135E-1,2.539650410E-1,4.603720574E-1
2.918252125E0,4.421664476E-2,1.562928584E-1,-4.520833254E-2,1.686011939E-1
2.928221125E0,6.430281725E-2,-1.523049477E-1,-6.871367168E-1,7.067450156E-1
2.938190125E0,-1.341396952E-1,1.297197483E-1,6.904830784E-1,7.152534882E-1
2.948159125E0,5.476063639E-2,1.749916694E-1,-3.522064501E-1,3.970770645E-1
2.958127125E0,-2.091504454E-1,-7.457012594E-2,-6.977207619E-1,7.322013890E-1
2.968096125E0,1.231460527E-1,-1.086920645E-2,-3.033821994E-1,3.276031881E-1
2.978065125E0,9.430831600E-2,9.204551663E-2,9.549105424E-1,9.639608807E-1
2.988034125E0,2.915453153E-1,-1.367051611E-2,2.460321236E-1,3.817294326E-1
2.998003125E0,-4.317057788E-2,-3.603409138E-1,-1.977119029E-1,4.132786826E-1
3.007972125E0,1.630759575E-1,-3.490887147E-1,-8.620608509E-2,3.948267820E-1
3.017940125E0,2.957284134E-1,-1.800504611E-1,6.056516737E-1,6.976298537E-1
3.027909125E0,9.340276502E-2,-2.065472102E-1,6.434299493E-1,6.821934668E-1
3.037878125E0,-1.638667569E-2,-2.152407956E-1,-1.605060697E-1,2.689968803E-1
3.047847125E0,8.530005902E-2,-5.855124012E-2,-2.343300909E-1,2.561541319E-1
3.057816125E0,2.286566472E-1,3.895722046E-2,-2.660857344E-1,3.529917072E-1
3.067785125E0,1.418295147E-1,1.487189234E-1,-2.472079986E-1,3.214727423E-1
3.077754125E0,-1.381857492E-1,5.387043435E-2,-2.769557083E-1,3.141684092E-1
3.087723125E0,-3.788253877E-2,1.808066157E-1,-2.108558589E-1,2.803325030E-1
3.097691125E0,-2.724083652E-1,-1.971451980E-1,1.851351267E-1,3.838587783E-1
3.107660125E0,-2.885840660E-1,-5.465086588E-1,1.955326456E-1,6.482171648E-1
3.117629125E0,1.564212048E-1,1.201778233E-2,5.617040008E-1,5.832009988E-1
3.127598125E0,7.526419044E-2,8.065250929E-2,2.257797074E-1,2.512886824E-1
3.137567125E0,-2.839965234E-1,5.343562078E-2,-3.829809308E-2,2.915066634E-1
3.147536125E0,-3.791469846E-1,1.152226369E-1,-5.862283927E-1,7.075962270E-1
3.157505125E0,-8.862219114E-2,8.996678761E-1,-8.798007184E-1,1.261469573E0
3.167473125E0,-2.389000919E-1,2.571622986E-1,-1.521048487E0,1.561023447E0
3.177442125E0,-3.385629591E-1,-3.841795369E-1,5.962698162E-1,7.859748644E-1
3.187411125E0,-2.096489936E-2,-2.578395158E-1,1.749376411E0,1.768400003E0
3.197380125E0,-2.296132151E-2,-3.067766543E-1,9.038766289E-1,9.547942701E-1
3.207349125E0,3.584639210E-1,5.103592347E-2,-8.759210908E-1,9.478073673E-1
3.217318125E0,2.844889686E-1,1.646609549E-1,-1.275909233E0,1.317570330E0
3.227287125E0,1.864459994E-1,1.633587435E-1,2.133415103E-2,2.488038097E-1
3.237255125E0,3.771672270E-1,3.733273239E-1,3.121109229E-1,6.156635738E-1
3.247224125E0,3.219993320E-1,1.952569494E-1,4.070012927E-2,3.787681964E-1
3.257193125E0,8.905828379E-2,1.006653723E-1,7.484319091E-2,1.538388713E-1
3.267162125E0,2.043587252E-2,1.947414808E-1,2.365555412E-1,3.070836910E-1
3.277131125E0,2.024716095E-1,2.845712681E-1,-3.111110491E-1,4.677238973E-1
3.287100125E0,-1.642823112E-1,-2.860768531E-3,-3.536454499E-1,3.899512354E-1
3.297069125E0,-1.086951708E-1,-2.617623031E-1,-1.841264820E-1,3.379892082E-1
3.307037125E0,-5.243231166E-2,-3.613335883E-1,6.612762362E-1,7.553789578E-1
3.317006125E0,-1.460304468E-1,-4.430160115E-1,6.861614013E-1,8.297020829E-1
3.326975125E0,-3.543133481E-1,-4.573009421E-1,2.614594173E-1,6.348410251E-1
3.336944125E0,1.595121526E-1,9.966944531E-4,-6.932359475E-1,7.113516705E-1
3.346913125E0,2.031251820E-1,9.262901394E-2,-3.104304332E-1,3.823702755E-1
3.356882125E0,8.245549824E-2,-1.317703303E-1,-7.963030636E-2,1.746519821E-1
3.366851125E0,-8.584816240E-2,-1.595602825E-2,2.108985436E-1,2.282601531E-1
3.376819125E0,6.103345625E-2,-1.074580827E-1,-3.542091215E-1,3.751485360E-1
3.386788125E0,-1.634054846E-1,-3.255172728E-1,1.051212430E-2,3.643807789E-1
3.396757125E0,-1.189021801E-1,-4.446013013E-1,4.664692301E-1,6.552874088E-1
3.406726125E0,-1.199190109E-1,-4.416766337E-1,7.626271945E-1,8.894150076E-1
3.416695125E0,1.944597546E-2,2.330570607E-1,-3.525403261E-2,2.365091675E-1
3.426664125E0,-6.256506130E-2,1.460778640E-1,-8.794761980E-1,8.937178034E-1
3.436633125E0,-2.225507288E-1,-8.720986929E-2,-4.617253840E-1,5.199276088E-1
3.446602125E0,2.124509063E-2,1.924828475E-2,3.476216483E-1,3.488017499E-1
3.456570125E0,1.870574354E-1,2.754549290E-1,1.704738182E-1,3.740684760E-1
3.466539125E0,-7.101359356E-2,1.317718835E-1,-7.031791377E-1,7.189350871E-1
3.476508125E0,-1.799446996E-1,-3.449774643E-1,-1.929411596E-1,4.342992480E-1
3.486477125E0,1.674525619E-1,-4.470561817E-4,9.866422123E-1,1.000751425E0
3.496446125E0,4.244275302E-1,3.155593915E-1,2.907066053E-1,6.035120449E-1
3.506415125E0,2.008189305E-1,1.116103733E-1,-6.619808257E-1,7.007165845E-1
3.516384125E0,4.669138743E-2,-5.763468906E-2,-4.846739513E-1,4.903169200E-1
3.526352125E0,-9.499752000E-3,-4.631742509E-1,2.795384234E-1,5.410751909E-1
3.536321125E0,-1.247311963E-1,-2.009113165E-1,1.307146813E0,1.328365921E0
3.546290125E0,-2.688213542E-2,-2.114289774E-1,-4.690010744E-1,5.151571309E-1
3.556259125E0,-2.889166630E-1,-2.353431575E-1,-8.365067643E-1,9.157525903E-1
3.566228125E0,-6.158340516E-2,-1.610137176E-1,-2.002507639E-1,2.642315301E-1
3.576197125E0,6.636593420E-2,7.572774673E-2,6.565715665E-1,6.642479588E-1
3.586166125E0,8.396336725E-2,-1.094792459E-2,6.556541383E-2,1.070912115E-1
3.596134125E0,2.899035999E-1,-4.036967388E-1,-9.773042089E-1,1.096420846E0
3.606103125E0,4.236907080E-2,-4.882597928E-1,4.906006891E-1,6.934564150E-1
3.616072125E0,9.610618863E-2,-6.323890905E-1,6.910572749E-1,9.416541395E-1
3.626041125E0,4.124444658E-1,-6.886279761E-1,1.635817051E-2,8.028614554E-1
3.636010125E0,1.967648001E-1,-4.154490210E-1,7.006537253E-1,8.379915980E-1
3.645979125E0,2.538144387E-1,-2.344530834E-1,4.397515476E-1,5.592597261E-1
3.655948125E0,1.357495433E-1,-1.049305141E-1,4.604857743E-2,1.776480306E-1
3.665917125E0,4.788284898E-3,1.253247252E-1,-3.650352412E-1,3.859791986E-1
3.675885125E0,-5.545353144E-3,-1.089734800E-1,-1.274040463E0,1.278704450E0
3.685854125E0,-2.351242159E-1,-1.580151558E-1,-1.379901963E-1,3.151086807E-1
3.695823125E0,-8.214534000E-2,-3.869332466E-1,4.620294392E-2,3.982460373E-1
3.705792125E0,-1.258934766E-1,-5.603767560E-1,2.038052863E-1,6.094324169E-1
3.715761125E0,-2.357460307E-1,-4.745530788E-1,3.460961097E-1,6.328975689E-1
3.725730125E0,-1.456823182E-1,-5.563857389E-1,-1.459856790E-1,5.933803559E-1
3.735699125E0,-2.543185783E-1,-2.343973339E-1,6.417441970E-1,7.290100574E-1
3.745667125E0,1.165661444E-1,-1.404565702E-1,-4.125473768E-1,4.511219926E-1
3.755636125E0,-2.755276355E-1,-1.547065454E-2,-9.497749329E-2,2.918484937E-1
3.765605125E0,-1.444468381E-1,-2.822372972E-1,-1.018259861E0,1.066478282E0
3.775574125E0,-6.872831896E-2,-5.052116750E-1,-4.441340357E-1,6.761785711E-1
3.785543125E0,-2.193437868E-1,-5.723088766E-1,9.343897390E-1,1.117467374E0
3.795512125E0,1.522703395E-1,-6.439389494E-1,3.362271792E-1,7.422212223E-1
3.805481125E0,4.113917477E-1,-3.917997745E-1,-1.220723212E-2,5.682422458E-1
3.815449125E0,1.677514277E-1,-4.826058642E-1,1.089634484E-1,5.224193667E-1
3.825418125E0,2.453067765E-2,-3.925005999E-1,2.627615923E-1,4.729715947E-1
3.835387125E0,1.184004159E-1,-3.927044850E-1,-2.484084320E-1,4.795229088E-1
3.845356125E0,1.728561200E-1,-4.264255604E-1,-2.979361027E-1,5.481641343E-1
3.855325125E0,1.286762396E-1,-3.997810046E-1,2.014699084E-1,4.658031240E-1
3.865294125E0,1.964964129E-2,-4.434421639E-1,1.626432270E-1,4.727365867E-1
3.875263125E0,5.199402630E-2,-4.916392642E-1,-2.080357468E-1,5.363687321E-1
3.885232125E0,1.376618021E-1,-4.763506956E-1,1.743873596E-2,4.961500443E-1
3.895200125E0,1.628315073E-1,-4.440502743E-1,4.809586304E-1,6.745487011E-1
3.905169125E0,3.961883292E-2,-4.275335347E-1,2.835075134E-1,5.145202477E-1
3.915138125E0,-2.493636478E-2,-3.671025974E-1,-3.962921172E-1,5.407712839E-1
3.925107125E0,4.040670868E-2,-3.378669577E-1,-4.320332229E-1,5.499449872E-1
3.935076125E0,1.052451674E-1,-2.912574496E-1,2.420566016E-1,3.930634117E-1
3.945045125E0,6.279288344E-2,-2.573680292E-1,5.183235079E-1,5.821000838E-1
3.955014125E0,2.560265500E-2,-1.498343164E-1,1.839674377E-1,2.386416486E-1
3.964982125E0,-2.251104936E-3,7.141716108E-3,-2.706705362E-1,2.707740954E-1
3.974951125E0,-6.676526248E-2,1.066444427E-1,-1.556037641E-1,2.001078929E-1
3.984920125E0,-1.716196532E-1,1.647981818E-1,-2.112715960E-2,2.388683800E-1
3.994889125E0,-1.276836382E-1,1.365814559E-1,-3.654310977E-1,4.104844611E-1
4.004858125E0,-3.120287696E-1,1.631242701E-1,-6.023567677E-2,3.572111662E-1
4.014827125E0,-4.731391490E-2,1.033738757E-1,-2.954726708E-1,3.165894248E-1
4.024796125E0,-1.645939678E-1,1.390123627E-1,3.261237752E-1,3.908610085E-1
4.034765125E0,-5.119504083E-2,5.318133999E-2,-6.018539071E-2,9.524425643E-2
4.044733125E0,-3.187178381E-2,8.439487349E-2,4.737998843E-3,9.033689118E-2
4.054702125E0,-2.037301496E-2,1.295658935E-1,6.410711825E-2,1.459866539E-1
4.064671125E0,4.907246500E-2,1.314002381E-1,-1.721244872E-1,2.220382140E-1
4.074640125E0,-1.319109924E-2,9.837538339E-2,-3.073062658E-2,1.039042471E-1
4.084609125E0,1.339183781E-1,4.868457533E-2,-3.615918159E-3,1.425390990E-1
4.094578125E0,5.893353838E-2,2.838611238E-2,1.869483483E-1,1.980621575E-1
4.104547125E0,3.666628137E-2,3.273845080E-2,4.273729920E-2,6.513600459E-2
4.114515125E0,1.515972153E-1,1.910826221E-2,-1.994941342E-1,2.512861933E-1
4.124484125E0,1.835664284E-1,-4.600516185E-3,1.458383292E-1,2.344922528E-1
4.134453125E0,1.694659044E-1,8.632609919E-3,2.629370087E-1,3.129362320E-1
4.144422125E0,8.027525425E-2,4.480209723E-3,-7.996008933E-2,1.133922599E-1
4.154391125E0,8.520204507E-2,1.128421258E-2,-2.339213705E-1,2.492106128E-1
4.164360125E0,1.132905342E-1,2.150160067E-2,1.270003545E-1,1.715405317E-1
4.174329125E0,1.158066642E-1,1.597751677E-3,2.473746443E-1,2.731445605E-1
4.184298125E0,7.313909300E-2,-5.501937568E-3,-8.612363935E-3,7.384965168E-2
4.194266125E0,2.013642199E-2,-4.446697868E-3,-1.619924319E-1,1.632997140E-1
4.204235125E0,3.139962114E-2,2.645247471E-2,8.008931279E-3,4.183076148E-2
4.214204125E0,-4.509233840E-2,2.947183069E-2,1.237493026E-1,1.349659131E-1
4.224173125E0,-1.433568805E-1,1.297888186E-2,2.950329602E-2,1.469356697E-1
4.234142125E0,-5.288082965E-2,2.616661895E-2,-2.595748597E-1,2.661957586E-1
4.244111125E0,-2.491680950E-1,4.848675672E-2,1.077858192E-1,2.757779685E-1
4.254080125E0,-5.858438652E-2,5.011904351E-2,-1.463996619E-1,1.654596926E-1
4.264048125E0,-2.366422992E-2,6.282785710E-2,-8.781289995E-2,1.105370562E-1
4.274017125E0,-2.528723792E-1,7.084322032E-2,3.216629344E-1,4.152472100E-1
4.283986125E0,5.732975677E-2,2.147389948E-2,-2.773422092E-1,2.840185388E-1
4.293955125E0,6.368235458E-2,2.871107139E-2,-4.387809098E-2,8.249275588E-2
4.303924125E0,-1.975119281E-1,1.713102624E-2,3.472924501E-1,3.998955860E-1
4.313893125E0,8.549959525E-2,-1.943175942E-3,-2.927958155E-1,3.050300744E-1
4.323862125E0,3.089186721E-1,1.589039326E-2,-2.052366847E-1,3.712214262E-1
4.333831125E0,8.774445098E-2,7.238129385E-2,5.344501287E-1,5.464202416E-1
4.343799125E0,-4.093566243E-2,-3.352819037E-2,-1.806848109E-2,5.591366574E-2
4.353768125E0,5.969539404E-2,-8.002912302E-2,-4.883898568E-1,4.984905745E-1
4.363737125E0,1.694675489E-1,6.107124388E-3,2.298119473E-1,2.856047588E-1
4.373706125E0,1.835641991E-1,3.762749054E-2,5.537915486E-1,5.846338363E-1
4.383675125E0,8.241635844E-2,-6.537552550E-3,-8.132424474E-2,1.159690843E-1
4.393644125E0,4.928683855E-2,-1.842329744E-2,-4.640326953E-1,4.670063732E-1
4.403613125E0,9.315831486E-2,2.101006910E-2,7.621845603E-2,1.221848913E-1
4.413582125E0,1.137970858E-1,7.623709403E-3,3.700240856E-1,3.872024298E-1
4.423550125E0,3.480631862E-2,-2.190250039E-2,2.579206824E-2,4.854307493E-2
4.433519125E0,4.141327031E-3,3.249663189E-3,-2.652688783E-1,2.653211049E-1
4.443488125E0,3.308387507E-2,4.515318599E-2,-1.344795281E-1,1.456643280E-1
4.453457125E0,-1.611616887E-1,1.743537381E-2,1.854327500E-1,2.462973547E-1
4.463426125E0,-1.469667322E-1,-6.624493338E-3,-1.197468835E-1,1.896903276E-1
4.473395125E0,-1.568596363E-1,4.549692918E-2,-1.144972533E-1,1.994606154E-1
4.483364125E0,-1.463036945E-1,1.276578739E-2,-1.003557622E-1,1.778735938E-1
4.493332125E0,-8.673174977E-2,4.037560880E-2,-1.425153565E-1,1.716485160E-1
4.503301125E0,-1.780369358E-1,7.402355745E-3,1.447595179E-2,1.787777910E-1
4.513270125E0,3.075745068E-2,2.536558695E-3,-1.841826153E-1,1.867503432E-1
4.523239125E0,-1.498130471E-1,6.179092649E-2,3.487782276E-1,3.845885070E-1
4.533208125E0,8.694539241E-2,1.257385254E-2,-1.481111419E-1,1.722048588E-1
4.543177125E0,1.751831657E-1,2.234352663E-2,-1.219963074E-1,2.146426652E-1
4.553146125E0,-3.431617577E-2,4.150415797E-2,3.435999334E-1,3.477946366E-1
4.563115125E0,4.365304627E-2,-1.830251589E-2,-1.730144334E-1,1.793726977E-1
4.573083125E0,1.786196474E-1,-2.886923857E-2,-1.924260199E-1,2.641328918E-1
4.583052125E0,2.000159616E-1,-3.656848669E-3,3.095749855E-1,3.685870713E-1
4.593021125E0,1.014774775E-1,-1.322402637E-2,2.418063408E-1,2.625697236E-1
4.602990125E0,3.158801112E-2,-2.715881836E-2,-2.857528442E-1,2.887734265E-1
4.612959125E0,1.408356342E-1,1.680540942E-2,-1.829026598E-1,2.314529771E-1
4.622928125E0,1.867309780E-1,2.982546115E-1,-1.921506160E-1,4.009315786E-1
4.632897125E0,-2.094602747E-1,5.296701030E-1,-6.285394299E-1,8.482251114E-1
4.642866125E0,-2.859652809E-1,2.894159604E-1,-2.564828521E-1,4.809586192E-1
4.652834125E0,-1.597331774E-1,1.454119575E-1,1.091366429E0,1.112537644E0
4.662803125E0,1.513471738E-1,-2.220018945E-1,9.562951630E-1,9.933233346E-1
4.672772125E0,1.856593661E-1,-4.972220030E-1,-2.979337639E-1,6.086572501E-1