Time (s),Linear Acceleration x (m/s^2),Linear Acceleration y (m/s^2),Linear Acceleration z (m/s^2),Absolute acceleration (m/s^2)
0.023220083210617304,0.062019077539443974,0.3436884456127882,0.08587308615446092,0.35964190600133006
0.0332090831361711,-0.8809438490867615,0.06970568105578423,0.2793384486436844,0.926796048818676
0.04319708328694105,0.16197664439678192,0.3794685083627701,-0.2425647246837616,0.47861302513619114
0.053185083437711,-0.38633021593093875,0.06304701805114746,-0.16930379033088686,0.4264853287591408
0.06317308312281966,-0.36948731124401096,0.2664084275811911,-0.10333754986524582,0.46708989784490473
0.07316108327358961,0.13901813685894013,-0.14912599928677084,-0.3388476088643074,0.3954520300517721
0.08314908342435956,-0.45592260718345645,0.30182954438030724,0.19715875625610352,0.5812383958155533
0.09313708357512951,-0.47135867178440094,0.27654472209513187,0.10824862629175187,0.5571119688887322
0.10312508326023817,0.5178533917665482,0.036233733594417575,0.0764447432756424,0.5247178456930811
0.11311408318579197,-0.7888349997997285,0.47944215506315235,0.046043314933776856,0.9242539823072057
0.12310208333656192,-0.12355459034442902,-0.09419367402791977,0.029130828380584717,0.1580721043834008
0.13309008348733187,-0.2833718580007553,0.2101748775690794,-0.3458908724784851,0.49407852081618103
0.14307808317244053,-0.5114454281330109,-0.10887113548815251,-0.19561421424150469,0.5582958632427432
0.15306608332321048,-0.27078981935977936,0.050322672799229626,-0.22700908452272417,0.3569210306530082
0.16305408347398043,0.0827497959136963,0.10730291225016117,-0.1621821740269661,0.2113397768363478
0.1730420831590891,-0.5521566671133041,0.026743629500269893,0.006647699475288391,0.552843918900112
0.18303108355030417,0.47815021276474,0.05795014634728432,-0.18592625498771667,0.5162890834817208
0.19301908323541284,-0.12705005586147308,-0.10277365900576114,-0.081774480342865,0.18273261152619014
0.20300708338618279,-0.25851592898368836,0.1531651096791029,-0.04135823339223862,0.3033159076452106
0.21299508353695273,-0.022473773360252382,0.1831328207999468,-0.15346456021070481,0.2399876492319104
0.2229830832220614,0.3781435292959213,0.13369658589363098,0.060394136309623724,0.40560418825324496
0.23297108337283134,-0.33128277361392977,-0.05761020384728909,-0.005530588924884797,0.3363001621981775
0.2429590835236013,0.41706493556499485,0.3616603014618158,0.20412103593349457,0.588563277347345
0.2529480834491551,0.327956292629242,0.2460824827104807,-0.001068871021270752,0.4100159273215263
0.26293608313426375,0.09277777075767518,0.10153975032269955,0.19724587976932526,0.24046615713720507
0.2729240832850337,0.4276951736211777,0.14393009036779406,0.12079821288585664,0.46715226713411917
0.28291208343580365,-0.44504620134830475,-0.09465531170368195,0.3217278385162354,0.5572562708885436
0.2929000831209123,0.521393296122551,0.36613042473793034,0.12124143183231355,0.6485383118621945
0.30288808327168226,0.3208156728744507,-0.18805632255971433,0.10466223657131196,0.3863185993201455
0.3128760834224522,-0.008069742321968078,-0.06005178183317185,-0.09911147475242615,0.11616549259604866
0.32286408357322216,-0.49748403131961827,-0.17607837438583374,-0.18892587661743165,0.5605238105558423
0.33285308349877596,-0.47602182626724243,0.1598584905266762,-0.36768987715244295,0.6223723659005489
0.3428410831838846,0.496245591044426,-0.23076723620295525,-0.1611831772327423,0.5705201315980215
0.35282908333465457,-0.19638049185276032,0.048499437868595126,0.09298066914081574,0.22262726222943952
0.3628170834854245,0.1584642219543457,0.1311776053905487,0.17326527893543245,0.26895971943800034
0.3728050831705332,0.2062266182899475,-0.12022635519504547,0.29461313009262086,0.37918424413174723
0.38279308332130313,-0.0860587352514267,0.3325611942261458,-0.07879298508167268,0.35243636066143363
0.3927810834720731,0.013166175484657289,-0.0844633224606514,-0.12480472505092621,0.15127333014455013
0.4027700833976269,-0.1740102142095566,0.3641856408119202,-0.2911954325437546,0.49770022659949537
0.4127580835483968,-0.17065566658973694,0.07156524181365967,-0.31032869160175325,0.36131542619474627
0.4227460832335055,0.46787607014179233,-0.3486492964625359,0.08593185067176819,0.5897869377114279
0.43273408338427544,0.10972358644008637,0.2363227488845587,-0.319029640853405,0.41190729394450143
0.4427220835350454,-0.3114314764738083,0.11942353248596192,0.23982530415058137,0.410813487072906
0.45271008322015405,0.11826870739459992,0.35124385222792626,-0.1091879814863205,0.3863699602424597
0.462698083370924,-0.21045707881450654,0.007549486309289932,-0.09783268868923188,0.2322076909640026
0.47268608352169394,-0.4268350481987,-0.06083684362471104,0.06374985337257386,0.43583634969794427
0.48267508344724774,-0.09928455233573914,-0.2893799451738596,-0.1447843685746193,0.3384681497347798
0.4926630831323564,0.3085487991571427,-0.0496225418150425,0.14107928037643433,0.3428820809972912
0.5026510832831264,-0.493848232626915,-0.21496893659234048,-0.03450617372989655,0.5397114012079484
0.5126390834338963,-0.2010383838415146,0.17771683730185034,-0.0606411811709404,0.2750946362472146
0.5226270835846663,-0.4326536124944687,0.08244296327233315,-0.23300686597824097,0.49827521530840674
0.5326150832697749,0.6480814093351365,-0.0867628861963749,-0.13287972986698152,0.6672288469157068
0.5426030834205449,0.014546703100204469,-0.11897899791598321,-0.034229600429534913,0.12465662462036525
0.5525920833460987,-0.06517598927021027,-0.02269253231585026,0.08976206928491592,0.11322583487246415
0.5625800834968686,0.07090859949588776,-0.1107494804263115,0.2370829600095749,0.27111216649952813
0.5725680831819773,-0.18080935657024386,0.29418935313820843,-0.0257300877571106,0.3462678678988446
0.5825560833327472,0.05151396989822388,0.062290242165327074,0.21471502125263214,0.22942603103224463
0.5925440834835172,0.35647550225257874,0.19121520772576334,-0.07811412334442139,0.411994970403405
0.6025320831686258,0.21775031089782715,-0.02555730253458023,0.04105680942535401,0.22305612569291677
0.6125200833193958,-0.2197266697883606,-0.010559340566396715,-0.04245020091533661,0.22403867667711497
0.6225090832449496,0.16465233027935028,-0.12364968068897725,0.17840790510177612,0.27245002111159883
0.6324970833957195,-0.13122730672359467,0.21449611611664296,0.0980010885000229,0.2698766444252672
0.6424850835464895,0.7272012537717819,0.19085173018276694,0.1488212862610817,0.7664162195865964
0.6524730832315981,0.6090301948785782,0.2804906424880028,0.25154663264751437,0.7161483695390747
0.6624610833823681,0.38813817501068115,0.027187286987900735,0.1453553491830826,0.41535354700606625
0.672449083533138,0.12386039972305299,-0.02109499990940094,0.2558554458618164,0.2850410616347774
0.6824370832182467,-0.1993210566043854,0.19187484674155714,-0.02073130309581757,0.2774430163944216
0.6924250833690166,0.38422872662544255,0.12080917641520501,0.31754766404628754,0.5128967638926796
0.7024140832945704,0.6544706618785858,0.09724533587694169,0.12108940422534943,0.6726448887973977
0.7124020834453404,0.819874359369278,0.2668660452961922,0.5455428814888,1.020308035264996
0.7223900831304491,0.22194861173629762,0.510082661435008,0.3530718380212784,0.6588666257688385
0.732378083281219,1.0869149440526962,0.047628641277551655,0.16278882265090944,1.100069445014764
0.742366083431989,0.08612246990203858,0.17142252892255783,0.22579257130622865,0.2962854172943904
0.7523540835827589,0.10706778109073639,0.3131428834050894,-0.26944788336753844,0.4267600461924638
0.7623420832678676,0.9166422700881959,0.10521487154066564,0.482618947327137,1.041260903340231
0.7723310831934214,0.8175150078535081,0.826436762586236,0.09739297807216644,1.1665392847210527
0.7823190833441913,0.19526367366313935,0.02792542487382889,0.3895070081949234,0.43660444459461123
0.7923070834949613,-0.0678563529253006,0.6427926027774811,0.11814650058746339,0.6570733676073282
0.8022950831800699,0.16309638619422914,0.29178337007761,-0.18125608384609224,0.38025219811946687
0.8122830833308399,0.3902536976337433,0.3168378120660782,-0.5034154468774796,0.7114149702012751
0.8222710834816098,-0.42328578829765323,0.2604928725957871,-0.2545883542299271,0.5584287110791076
0.8322590831667185,0.5749584692716598,0.37032295145094396,-0.348713615834713,0.7676701867514905
0.8422470833174884,0.30611811161041264,0.06608574293553829,-0.062383359074592595,0.3193232017325028
0.8522360832430422,-0.3539547675848007,0.4106701281666756,0.045200731158256534,0.544037717223434
0.8622240833938122,0.04748172998428345,0.31125233240425587,-0.19563789546489715,0.37068411788384437
0.8722120835445821,-0.19468246042728424,0.3208512677997351,-0.39710546493530274,0.5463877256383066
0.8822000832296908,-0.46253639280796055,0.2609746831655502,-0.36155790209770206,0.642473202938808
0.8921880833804607,-0.2246699059009552,0.05874295569956303,-1.0009260830283166,1.0275117153338318
0.9021760835312307,0.0774703449010849,-0.2924455672502518,-0.41982248246669773,0.5174717199305826
0.9121640832163393,-1.1026345986127855,0.4740328227728606,-0.7259484878182412,1.4026800711814422
0.9221530831418931,0.5296068799495697,0.2082674427330494,-0.5858588486909867,0.8167553890743607
0.9321410832926631,-0.6495239174365998,0.7003118824213743,-0.3134321013092995,1.0052650069080882
0.942129083443433,-0.7326403337717057,0.15579935342073442,-0.2348148250579834,0.784967068903178
0.9521170831285417,-0.16155389070510864,-0.1650399275869131,-0.3886571153998375,0.4520975455040364
0.9621050832793117,-1.5042014890909197,-0.05071136645972729,-0.4767746552824974,1.5787678215593632
0.9720930834300816,-0.04246598839759827,0.023692406192421914,-0.680275593996048,0.6820114178431674
0.9820810835808516,-1.3042483484745027,0.03647229999303818,-0.5166740083694459,1.4033338925892869
0.9920690832659602,-0.8217407906055451,0.4220592617243529,-0.5222303250432014,1.0611863454394144
1.002058083191514,0.10392431795597076,0.1305455944687128,-0.5529691377282143,0.5775961247945559
1.012046083342284,-0.3051533210277558,-0.009139344245195389,-0.36723788738250734,0.47756229214278206
1.022034083493054,-1.1402088063955307,0.008639041855931283,-0.22109638005495072,1.16147938617072
1.0320220831781626,-0.7481208372116089,0.18617783144116404,-0.35953944325447085,0.8506559723214009
1.0420100833289325,-0.5175189310312271,0.2478560893982649,-0.2932071670889855,0.6443825943178889
1.0519980834797025,-0.2814440310001373,0.08213634990155698,-0.37869433701038363,0.4789222519830241
1.0619860831648111,-0.2294809949398041,0.0018863848596811295,-0.40040592581033707,0.4615083866089915
1.071975499857217,-0.3107005745172501,0.12849051743745804,-0.20332055211067201,0.3929171757346368
1.081963500007987,-0.3940222281217575,-0.014159032702445985,-0.08418528735637665,0.40316393324351196
1.091951500158757,-0.16659009754657747,0.1315288768708706,-0.10970546007156373,0.23892968426088101
1.1019394998438656,-0.2833864760398865,-0.1751162150502205,0.10452131867408752,0.34913935560631143
1.1119274999946356,-0.03590658187866211,0.15334739662706853,-0.3074939614534378,0.3454811760499215
1.1219155001454055,0.29911957919597626,-0.0629144324362278,-0.03668016850948334,0.30785740729927985
1.1319034998305142,-0.044219568371772766,0.041117766648530965,-0.18006383657455446,0.18991847251675334
1.1418914999812841,0.2250435429811478,0.2474055614322424,0.16319198817014696,0.37213671287315386
1.151880499906838,0.3909653037786484,0.41363057345151905,0.22888808727264406,0.6134605745668525
1.161868500057608,0.6305537956953049,0.40209138572216035,0.28163114190101624,0.7991193101322192
1.1718565002083778,0.3859519010782242,0.18615780472755433,0.2960246479511261,0.5208110889770549
1.1818444998934865,0.48732390940189363,0.43918670654296876,0.28562420547008516,0.715507332337847
1.1918325000442564,0.9505058348178864,0.27457793802022934,0.286204833984375,1.02993572278386
1.2018205001950264,0.9217802184820175,0.2767022314667702,0.3524239665269852,1.0249124588305383
1.211808499880135,1.0370118820667267,0.3113542201370001,0.3976992496848107,1.1534729243222641
1.221796500030905,0.8612790781259537,0.5521873649954796,0.3626606869697571,1.0854654809580635
1.2317854999564588,0.5748046875,0.34511238880455497,0.3880975368618965,0.7746758598256629
1.2417735001072288,1.653321860432625,0.27470262989401817,0.2521798861026764,1.6948538001874511
1.2517614997923374,1.2432133573293687,-0.024896420985460282,0.2573780608177185,1.2698199674797743
1.2617494999431074,1.107727523446083,0.6628142000734807,0.30297523319721226,1.3259626397263031
1.2717375000938773,1.1764223670959473,0.26099799893796444,0.5401605194807053,1.3205540231504802
1.2817255002446473,0.9421431469917297,0.782607568949461,0.37022698402404786,1.2795219170065075
1.291713499929756,1.56873779296875,0.390936725512147,0.26078114032745364,1.637613076887551
1.3017024998553097,1.3088062530755997,0.5300883981585502,0.07050046384334564,1.4138379798810807
1.3116905000060797,1.4577734273672105,0.5218254784494639,-0.184612093269825,1.5593225517763867
1.3216785001568496,0.7248313772678375,0.26834173634648323,0.06954035103321075,0.776030716762718
1.3316664998419583,0.8828535497188569,0.2987405334413052,0.06671965420246125,0.9344130825437311
1.3416544999927282,1.3107592231035232,0.48726792231202126,-0.09553999543190003,1.401658895663404
1.3516425001434982,1.071470108628273,0.22639022983610632,-0.1715324565768242,1.1084782873418892
1.3616304998286068,1.1209866696596147,0.27004868477582933,-0.5736726665496826,1.2878811024508172
1.3716184999793768,-0.1024823945760727,0.27864072963595393,-0.4946978330612183,0.5769482155666725
1.3816074999049306,0.7255839139223099,0.1162312451004982,-0.5764828383922577,0.9339776129229351
1.3915955000557005,0.4111633408069611,0.31846114531159403,-0.586032510995865,0.7835221106266447
1.4015835002064705,0.6593513327836991,-0.1174651537835598,-0.7368240165710449,0.9957167638404623
1.4115714998915792,-0.4809603846073151,0.18088463947176933,-0.7363685184717179,0.8979313667283715
1.421559500042349,-0.1328820687532425,0.30095991723239424,-0.7342971423268319,0.8046283671397764
1.431547500193119,0.18252083659172058,0.22287473760545254,-0.8556499636173249,0.9028421039645694
1.4415354998782277,-0.35681581020355224,0.36260550387203694,-0.6204889833927155,0.802375755093109
1.4515235000289977,-0.3204414510726929,-0.003774889335036278,-0.8459397849440575,0.9046054903140169
1.4615124999545515,-0.6499057406187058,0.003097197040915489,-0.8292190870642663,1.0535612742837286
1.4715005001053214,-0.7690632247924805,0.16159409031271935,-0.9544287317991257,1.2363272616244827
1.48148849979043,-0.01584946274757385,0.1767984589934349,-0.9485926258563996,0.9650579621975973
1.4914764999412,-0.7418572998046875,0.13964181549847127,-0.8567469012737274,1.1418701076529436
1.50146450009197,-1.242061455845833,0.14696852289140225,-0.8315781462192536,1.5019449457580665
1.51145250024274,-0.4784408193826676,0.06538999736309052,-0.8485169452428818,0.976300402422848
1.5214404999278486,-0.9050881719589234,0.10749141186475754,-0.6607219201326371,1.125740848680718
1.5314294998534024,-1.0768852150440216,0.23652791306376458,-0.8041804325580597,1.3646733631708272
1.5414175000041723,-0.3270341867208481,0.07051581278443336,-0.4670720779895783,0.5745260352449821
1.5514055001549423,-1.0243883281946182,0.22086307615041734,-0.6299620574712753,1.2227036187079159
1.561393499840051,-0.9649695074558259,-0.31248814143240455,-0.2827339267730713,1.0529736284465714
1.5713814999908209,-0.8922757530212403,0.07548616535961629,-0.7830787083506584,1.1895656535317656
1.5813695001415908,-0.6856836837530137,0.11287026554346086,-0.5740685230493546,0.9013636780817283
1.5913574998266995,-0.9065774577856064,0.17559707544744016,-0.8785149157047272,1.2745608957544519
1.6013454999774694,-0.05727873980998993,-0.33469944790005685,-0.8092663407325745,0.8776198406494208
1.6113344999030232,-1.5443309301137924,0.2044658023864031,-0.7276997289061546,1.719392678099374
1.6213225000537932,-0.2037433058023453,0.1407388262450695,-0.6719871658086777,0.7161602494439964
1.6313105002045631,-0.23975981533527377,0.3936605047434569,-0.5445924165844918,0.7134663707882904
1.6412984998896718,-0.7174820119142533,0.49889584153890615,-0.2707126361131668,0.9148567262018015
1.6512865000404418,0.01039108693599701,0.07344358675181865,-0.3247394469380379,0.3331030524031656
1.6612745001912117,-0.3488314372301102,0.6175441794097424,-0.41723801314830783,0.8228801521113654
1.6712624998763204,-0.4523581445217133,0.029867869913578034,-0.5651164358854294,0.7244836552167014
1.6812514998018742,-0.7143098974227906,0.5131835129857063,-0.6480515885353089,1.0925048324651225
1.691239499952644,0.0634779578447342,0.08140435159206391,-0.6470932298898697,0.6552753373655734
1.701227500103414,0.03229358732700348,0.3200386510044336,-0.5706098949909211,0.6550292101736642
1.7112154997885227,0.41819403290748597,0.17056876234710217,-0.4342899557948113,0.6265682066242341
1.7212034999392927,0.1815004974603653,0.14273389622569085,-0.2835314869880676,0.3656576265084473
1.7311915000900626,-0.11644554555416108,0.3398400275409222,-0.11808627426624299,0.3781470316801433
1.7411795002408326,0.124201877117157,0.30017843686044215,-0.36147984176874165,0.48600501668250123
1.7511674999259412,-0.05453288733959198,0.3187603034824133,-0.4091095063090325,0.5214907046441126
1.761156499851495,0.2928624737262726,0.3694893577694893,-0.4851382201910019,0.6764982680776607
1.771144500002265,0.4979617488384247,0.04117397300899029,-0.33262441724538805,0.6002501164576326
1.781132500153035,0.3935860258340836,0.5856681563705206,-0.3048928275704384,0.7686851016002649
1.7911204998381436,0.7780433785915375,0.27865425132215027,0.1649864986538887,0.842745652903717
1.8011084999889135,0.48549723923206334,0.6414489857107402,0.12794672638177873,0.8145764146862505
1.8110965001396835,0.6102820837497711,0.13738259755074977,0.24665514439344408,0.6724261744693648
1.8210844998247921,0.449547387957573,0.42482828378677373,-0.21001619875431063,0.6532064975671187
1.831072499975562,1.0147895389795303,0.05836464084684849,-0.2747229489684105,1.0529372908266519
1.841061499901116,0.48029087841510776,0.3689223971217871,-0.43967348724603655,0.7483955093223984
1.8510495000518858,0.7342044639587403,0.08930532865226269,-0.07777176886796952,0.7436935421633581
1.8610375002026558,0.9589398586750031,0.26342101201415064,0.004783022403717041,0.9944743131069342
1.8710254998877645,0.9972917461395264,0.23702543802559378,0.2897491237521172,1.0652353917817272
1.8810135000385344,0.5445067548751832,0.16642264790832997,0.35090456753969196,0.6688184502252768
1.8910015001893044,0.7288145005702973,0.1643502485007048,0.2671499276161194,0.7934422879132881
1.900989499874413,0.9218345975875855,0.3010705757886171,-0.0811859580874443,0.973146277137066
1.910977500025183,1.0635863077640535,0.16423498526215555,0.19102736592292788,1.0930143727228312
1.9209664999507368,0.8653364610671997,0.33417846098542214,-0.22290287733078004,0.954027320028746
1.9309545001015067,0.573410126566887,0.2770925331115723,0.3865377920866013,0.744977120364663
1.9409424997866154,0.7453264528512955,0.1540006037056446,0.10968090176582337,0.7689327717517063
1.9509304999373853,0.7116780656576157,-0.026614917665719988,0.019075371623039246,0.7124309740480658
1.9609185000881553,0.36517966747283936,0.035256663858890536,-0.0237280011177063,0.3676441756904007
1.9709065002389252,0.4361444002389908,0.10452906623482705,-0.27085647761821746,0.5239384458268946
1.9808944999240339,0.7846027851104737,0.3379691378027201,-0.15583297491073608,0.8683942564179914
1.9908834998495877,0.20574656188488008,0.004622516334056854,-0.0918930870294571,0.22538268528995475
2.0008715000003576,0.46330822527408605,0.19765540413558483,-0.04517588049173355,0.5057301954291715
2.0108595001511276,0.38402115046977997,0.009977469518780709,-0.08387392312288285,0.3932004945141281
2.0208474998362362,-0.05679926812648774,0.11654092825949193,-0.17847368627786636,0.2205919343786145
2.030835499987006,0.13854509711265564,0.1589374078810215,-0.31820781469345094,0.3817224867490452
2.040823500137776,0.11154499411582948,0.3877007301896811,-0.5236994379758835,0.6610712845360692
2.050811499822885,-0.055549718141555786,0.29383698530495167,-0.4435963842272759,0.5349800904876943
2.0607994999736547,0.23012477338314058,0.09805736795067788,-0.5395898312330246,0.5947519186216556
2.0707878335379064,0.5567490702867508,0.1172535576671362,-0.41332067102193837,0.7032438418818804
2.080775833223015,-0.2516325867176056,0.31919877156615256,-0.3963745629787445,0.5677319866311258
2.090763833373785,-0.1772314453125,0.2790282538533211,-0.5380619537830353,0.6314890480165181
2.100751833524555,-0.3769506973028183,0.2878802074491978,-0.6103335392475129,0.7729643401661357
2.1107398332096636,-0.5928509491682052,-0.010402489006519319,-0.577678593993187,0.827824267381138
2.1207278333604336,-0.27063311398029327,-0.013749946877360345,-0.8908885011076928,0.9311893818271942
2.1307158335112035,-0.1496548068523407,0.2055981156975031,-0.5987955209612846,0.6505560869868727
2.140703833196312,-0.1470966500043869,0.2475400473922491,-0.5854691317677498,0.6524473953954855
2.150692833121866,0.14761178970336916,0.375800403803587,-0.698878510594368,0.8071222686365263
2.160680833272636,-0.6676450234651566,0.444217943251133,-0.580633192062378,0.9900577569963293
2.170668833423406,0.13377552330493928,0.3076862617582083,-0.8374396875500679,0.9021485224696687
2.180656833574176,-0.49715775668621065,-0.014576962441205979,-0.779834965467453,0.9249437259816953
2.1906448332592845,-0.06592911064624787,0.2600745043158531,-0.856772044301033,0.8977993825579929
2.2006328334100544,-0.9441399711370468,0.035055738911032676,-0.8303815135359764,1.2578404699927417
2.2106208335608244,0.37547778367996215,0.6560100875794888,-0.8756392550468445,1.1567527419557984
2.220609833486378,-0.12280848562717438,0.054823347777128224,-0.6354894304275513,0.6495647310227561
2.230597833171487,-0.10291274964809419,0.7201552127301694,-0.5299770087003708,0.9000501065016101
2.240585833322257,0.4502584093809128,-0.03657674588263035,-0.3795214256644249,0.5900059373395744
2.2505738334730268,-0.4213474363088608,0.28992110498249535,-0.4395141506195069,0.6743593980905932
2.2605618331581354,-0.1437812787294388,0.0393194554746151,-0.6796037489175797,0.6957588168573371
2.2705498333089054,-0.1455097156763077,0.13400846175849437,-0.3138384827971459,0.37097970087794857
2.2805378334596753,0.22068385899066925,0.7587344837933779,-0.7254713550209999,1.0727012955488693
2.290525833144784,0.834156768321991,-0.09963406965136529,-0.5231158858537674,0.989643719732133
2.300514833535999,0.11416337728500367,0.38537353835999966,-0.42900992006063465,0.5878737554030257
2.3105028332211077,0.6857404017448425,0.3379138816148043,-0.5413928201794624,0.9367667136032501
2.3204908333718777,-0.35106039583683013,-0.07037723377346992,-0.12230328619480134,0.3783575694667215
2.3304788335226476,-0.1074443417787552,0.6738496501743794,-0.6893615823984146,0.9699675401307251
2.3404668332077563,0.8574497365951539,-0.17450342684984207,-0.16329343736171723,0.8901327111475243
2.3504548333585262,0.46197155177593235,0.380248526930809,-0.7778387260437012,0.9813458822538571
2.360442833509296,0.5220657259225846,-0.026260795667767525,-0.2959921959042549,0.6007109384790678
2.370430833194405,0.1493963599205017,0.33402095161378387,-0.5667808458209038,0.6746330822483678
2.3804198331199586,0.6891996145248414,0.10865361906588078,-0.3467232236266136,0.7791140554497359
2.3904078332707286,0.08361927688121797,0.5365679901838303,-0.48445701956748966,0.727733464507623
2.4003958334214985,0.4708587348461151,-0.11636529251933099,-0.4059306675195694,0.63247809157067
2.4103838335722685,0.48299989342689514,-0.04625096417963505,-0.4968668577075005,0.6944816218058355
2.420371833257377,0.45444150745868683,0.04851464062929154,-0.4568862283229828,0.6462319859678208
2.430359833408147,0.056073628664016724,0.24938550174236299,-0.687813824415207,0.7337746502622677
2.440347833558917,0.8147755873203278,0.6533407605439425,-0.6397494193911553,1.224741902072695
2.450336833484471,0.38596593439579013,0.5579364205151797,-0.6070131978392601,0.9103448655330306
2.4603248331695795,0.6635537266731263,-0.2922460310161114,-0.11374764025211334,0.7339276643439653
2.4703128333203495,-0.18340259671211243,0.5235644403845072,-0.5581708207726479,0.7869630873668088
2.4803008334711194,0.9206458586454392,0.06705338403582574,-0.13697453498840334,0.9331918219674578
2.490288833156228,-0.07226281464099885,0.6482948327064515,-0.6105469626188279,0.8934627569500598
2.500276833306998,0.5304740220308304,0.2919400023669005,-0.24944017320871353,0.6548679661137387
2.510264833457768,-0.34929804503917694,0.6622905088216067,-0.696887826025486,1.0228834168202658
2.5202528331428766,1.495184497833252,-0.2194086543470621,-0.5737559893727303,1.6164506721531415
2.5302418335340917,-0.2942658054828644,0.21362758532166481,-0.65889115691185,0.7525733626321625
2.5402298332192004,0.0440768963098526,-0.1301581433415413,-0.5339870291948319,0.5513855841557239
2.5502178333699703,0.5484629809856415,0.5512374117225409,-0.6251752343773842,0.9977566834018399
2.5602058335207403,0.10900437891483307,0.2761457958072424,-0.23696279972791673,0.3798550034151406
2.570193833205849,-0.16406351566314697,0.1931493204832077,-0.5253115153312683,0.5832458189430164
2.580181833356619,-0.011514337062835694,-0.003979541882872582,-0.41870069414377215,0.41887789150069826
2.590169833507389,0.22217197537422181,0.23612789042294027,-0.7529626241326333,0.8197984390189903
2.6001588334329426,-0.08454313695430755,-0.02102783001959324,-0.3136127802729607,0.32548838319046663
2.6101468335837126,-0.17264488935470582,0.5769930079579354,-0.7322971022129059,0.9481488464170928
2.6201348332688212,0.20424908995628357,0.2037146544456482,-0.4827215659618378,0.5623499456997652
2.630122833419591,-0.5361428976058961,0.23290775567293168,-0.76000354886055,0.9588016601917618
2.640110833570361,-0.0335817289352417,-0.3284688010811806,-0.8212654119729996,0.8851532989856441
2.65009883325547,-0.42900494992733,0.24290364392101765,-0.786077160537243,0.9278818511052762
2.6600868334062397,-0.201909618973732,-0.02070257864892483,-0.6750163158774376,0.7048709936559889
2.6700748335570097,-0.2249774694442749,0.29705500043928623,-0.7703206685185433,0.8557163475068064
2.6800638334825635,0.1647166496515274,-0.1531517341732979,-0.707445850968361,0.7423386426726424
2.690051833167672,-0.32479821145534515,0.017322157099843027,-0.6994389662146568,0.7713681369816948
2.700039833318442,0.030389733910560608,0.14837974838912488,-0.44909042805433275,0.4739433491770915
2.710027833469212,-0.16804254591464998,0.2879361214488745,-0.5627392503619194,0.6540802482649918
2.7200158331543207,0.003784317970275879,0.04076123267412186,-0.37779561996459965,0.38000701258799197
2.7300038333050907,-0.5450394362211227,0.043306671828031544,-0.6875378358364106,0.878437095395951
2.7399918334558606,0.1392198657989502,-0.03525008574128151,-0.6124215799570084,0.6290349204733262
2.7499798331409693,0.10428392171859742,0.08640394024550915,-0.8448177042603493,0.8556037229060467
2.7599688335321844,0.2536340886354447,-0.09370886676013471,-0.5405508211255073,0.6044061489154966
2.769956833217293,0.18400252103805542,0.42738943733274937,-0.4183750042319298,0.6257445989044024
2.779944833368063,-0.20985247671604157,-0.3807627895474434,-0.14229959428310396,0.4574576903069216
2.789932833518833,0.3525543594360352,0.38826973736286163,-0.2622651636600494,0.5863710270629093
2.7999208332039416,0.20242826700210573,-0.12824054896831513,-0.1407863348722458,0.2779273893806272
2.8099088333547115,0.292365460395813,0.1972461721301079,-0.32409537613391876,0.47897956917161105
2.8198968335054815,0.6193598860502243,0.2676079107820988,-0.367431430220604,0.7682620114747736
2.82988483319059,0.07406901955604554,-0.06765330836176872,-0.231249777674675,0.25207072314109197
2.8398738335818052,0.6336428797245026,0.17343565218150617,-0.2079571017622948,0.6890786461983555
2.849861833266914,0.12747807204723358,0.044513866044580935,-0.266685366332531,0.29892010260106433
2.859849833417684,0.8054153645038605,0.10019704688340426,-0.20703558057546617,0.8376139261063309
2.869837833568454,0.43143914580345155,0.016594434566795827,-0.2085272052884102,0.4794775355901446
2.8798258332535625,0.6587595945596695,0.04399766653776169,-0.12757221221923828,0.6724393410678011
2.8898138334043324,0.323071528673172,0.2993207234144211,-0.3217564898729324,0.5454313402069073
2.8998018335551023,0.703194340467453,0.10372788805514574,0.020181372463703155,0.7110900386170205
2.909790833480656,0.7974713373184205,0.16784491002559662,-0.4498929584026337,0.9308792197090902
2.919778833165765,0.7465070056915284,0.006789494454860687,0.032457309365272524,0.747243122225101
2.9297668333165348,0.404343148469925,0.28968246549367904,-0.45261717617511754,0.6725114279310097
2.9397548334673047,0.9914369291067124,0.033642028346657755,-0.20318694323301317,1.0126025401746737
2.9497428331524134,0.687332598567009,0.24493142176419497,-0.4885743364691735,0.8781357438782459
2.9597308333031833,0.26278615057468413,0.1888822052255273,-0.21438611537218094,0.3881938366964278
2.9697188334539533,1.0768138790130615,0.09090128961950542,-0.23607051461935044,1.106128592145728
2.979706833139062,0.6484088534116745,0.20680509064346553,-0.7725291618704796,1.029564807401166
2.989695833530277,0.5447225171327591,-0.010703620612621308,-0.2680796349048615,0.6072099133054333
2.9996838332153857,0.5426058250665665,0.35041986990720037,-0.5767655512690545,0.8659524627556902
3.0096718333661556,0.380473644733429,0.20003938704729082,-0.12522572457790376,0.4477247288268277
3.0196598335169256,0.7917995381355286,0.32997752889990806,-0.37452819585800173,0.9360037647697662
3.0296478332020342,0.6688969123363495,0.030095911324024203,0.11854177236557008,0.6799860255969208
3.039635833352804,0.08251122951507568,0.3289279536902905,-0.6306929594278335,0.7160833127414786
3.049623833503574,0.33167161345481877,0.035143081694841385,-0.4063282781839371,0.525684092411646
3.059612833429128,-0.5529372704029083,0.11742605052888394,-0.7298357167840004,0.9231406587498172
3.069601375143975,0.9566664612293244,-0.10427555289119482,-0.49691655904054643,1.083055942978247
3.0795893748290837,-0.6065772879123688,-0.01351258646696806,-0.8427284941077233,1.0384170217139275
3.0895773749798536,1.204704179763794,-0.279675979167223,-0.6008575415611267,1.3749765813694363
3.0995653751306236,-0.8200252175331116,0.14995930060744286,-0.7915416759252548,1.1495509444802616
3.1095533748157322,0.07840356051921844,0.09866482056677342,-0.6026073208451271,0.6156439297643618
3.119541374966502,-0.480028338432312,0.34728455632925037,-0.7628745317459107,0.9659251109425787
3.129529375117272,0.21537751078605652,0.06697152301669121,-0.4248335462808609,0.4809950094264445
3.139518375042826,-0.5182767301797867,0.027182718850672246,-0.6056771090626717,0.7976179722727427
3.149506375193596,-0.11899668574333191,0.11122069291770459,-0.6169446936249733,0.6380838571402695
3.1594943748787045,-0.3383614128828049,0.1903618796914816,-0.6463655439019204,0.7539990101527637
3.1694823750294745,-0.5825417232513428,0.13568281196057796,-0.5519066986441612,0.813858518907599
3.1794703751802444,0.34054242432117465,0.17282483741641044,-0.8718303787708283,0.9518013324944642
3.189458374865353,-0.8356589180231094,0.1160121937841177,-0.6366831395030021,1.0569532045012953
3.199446375016123,-0.35965404868125916,-0.17276811942458153,-0.8890457510948182,0.974475348770854
3.209434375166893,-0.22467166006565095,-0.33951068311929705,-0.9632983732223511,1.0457956849411911
3.219423375092447,-0.9767674344778061,0.012182527631521226,-0.6135810828208924,1.153561779980382
3.2294113752432168,-0.5821125376224519,0.1270867471396923,-0.8982790893316269,1.07791992749288
3.2393993749283254,-0.13660674512386323,-0.05881684988737106,-0.48543350458145146,0.5077071124321972
3.2493873750790954,-1.1766100627183915,-0.024479733780026436,-0.6480723461508752,1.3435059593844823
3.2593753752298653,0.38304408073425295,-0.06400822721421719,-0.4234954109787941,0.5746026314391133
3.269363374914974,-0.4319332355260849,-0.006698350980877877,-0.47352360337972643,0.6409647344555048
3.279351375065744,-0.4084987646341324,0.023331194445490838,-0.5494011667370796,0.6850235232121084
3.2893403749912977,-0.0005993396043777466,0.023506391644477844,-0.5133253079652786,0.5138635825331009
3.2993283751420677,-0.7062898564338684,-0.01631322003901005,-0.7309659835696221,1.0165740266135666
3.3093163748271763,0.6055470085144044,-0.14069124452769757,-0.41822356134653094,0.7492610713715694
3.3193043749779463,0.12559819221496582,-0.03926938869059086,-0.6692129543423653,0.6820285690756926
3.3292923751287162,-0.19783410966396334,0.039892044067382816,-0.049689638614654544,0.20784313871778892
3.339280374813825,0.04238061904907227,0.11152350559830666,-0.43445689380168917,0.4505401222352237
3.349268374964595,0.26084896802902224,0.05127277225255966,-0.29648833215236664,0.39821653958463454
3.359256375115365,-0.3033938938379288,-0.12934881560504438,-0.22168577939271927,0.3973959684011975
3.3692453750409186,0.36148715078830723,0.18887471348047258,-0.469042004942894,0.6215681941494664
3.3792333751916885,0.4415255928039551,0.06592713721096516,-0.11247031599283219,0.46037029498138227
3.389221374876797,0.14401575207710268,0.011579606607556343,-0.28465736836194994,0.31922475076076123
3.399209375027567,0.2661997550725937,-0.17137202359735967,-0.2096457776427269,0.37971309189437563
3.409197375178337,-0.21740357100963595,-0.04603819862008095,-0.5663197928667069,0.6083600383099744
3.4191853748634458,0.9982752478122712,-0.10500824555754662,-0.5124388700723649,1.127019874532285
3.4291733750142157,0.386292793750763,-0.20893285587430002,-0.428921919465065,0.6138803415692314
3.4391613751649857,0.8287299674749374,0.03885811015963555,-0.3094580411911011,0.8854759121365315
3.4491503750905395,0.32661143302917484,0.08294129222631455,-0.014246740937232973,0.3372791955767131
3.4591383752413094,0.5385367476940155,0.29654636576771737,-0.0962901932001114,0.6222807862801192
3.469126374926418,0.7778515899181366,0.28401830423623325,0.04064136475324631,0.829078532835343
3.479114375077188,0.7954043465852738,0.18343322150409222,-0.09177994340658188,0.82142521225601
3.489102375227958,0.8038763773441315,0.25779613673686985,-0.13213304042816162,0.8544795015336352
3.4990903749130666,0.8535157299041749,0.1853072175756097,-0.1546918907761574,0.8869934876600692
3.5090783750638366,0.8127506965398789,0.04428695753216744,-0.45354103624820713,0.9317856517969203
3.5190663752146065,0.017944520115852357,0.1014299688488245,-0.4112367233633995,0.4239406645104087
3.5290553751401603,0.7097677803039552,-0.10672085847705604,-0.5465950879454613,0.9021783824487206
3.539043374825269,0.6214701461791993,-0.14341524302959444,-0.2617856919765473,0.6894380487388788
3.549031374976039,0.30344593405723574,-0.19062708746641877,-0.25118498235940934,0.4376208595744663
3.559019375126809,0.3408020406961441,-0.0698801838979125,-0.2589226028323174,0.43367059538516595
3.5690073748119175,0.30505450308322907,0.26331356942653655,-0.4544859462976456,0.6074123484730662
3.5789953749626875,0.632835379242897,-0.048710010722279554,-0.5571487274765968,0.8445519444621846
3.5889833751134574,0.21192472994327546,0.20386624351143837,-0.4804563546180725,0.5633043982589541
3.5989723750390112,0.3186288142204285,0.15476881820708513,-0.690961672961712,0.7764700521222837
3.608960375189781,1.0237726163864136,0.03772696629166603,-0.2640052950382233,1.0579378478230537
3.61894837487489,-0.5003251934051514,0.3291783607006073,-0.5398938864469528,0.806330639956238
3.62893637502566,0.43162450253963475,0.12272607643157245,-0.28665594667196276,0.5324781993577525
3.6389243751764297,0.31943806886672976,0.165184573084116,-0.5014630615711212,0.6170833210730697
3.6489123748615384,0.7093040961027146,-0.10572102114558221,-0.5083329552412034,0.8790287984158477
3.6589003750123084,0.16229063987731934,-0.0072542750090360646,-0.3459969994425774,0.3822365758544875
3.6688883751630783,-0.3517585533857346,-0.03922984689474106,-0.3336982583999634,0.48644381836608663
3.678877375088632,0.549102081656456,0.3622339864075184,-0.29986743807792665,0.7229433154871513
3.688865375239402,0.057229623198509216,-0.08238609910011292,0.10092528104782104,0.14229761575992284
3.6988533749245107,-0.013002453446388245,0.1962479427829385,-0.08128068298101425,0.21281181421157316
3.7088413750752807,0.1812192463874817,-0.2788962529599667,-0.15004306197166445,0.36487868617143043
3.7188293752260506,-0.35906289517879486,-0.017308781594038012,-0.4957456541061402,0.6123638707333844
3.7288173749111593,0.008154526948928834,-0.25323984012007716,-0.365072078704834,0.4443810702355261
3.7388053750619292,0.15194399178028106,0.1115140038728714,-0.5373076629638672,0.569404842249851
3.748793375212699,0.7063863354921341,0.05084241718053818,-0.24234136104583742,0.7485291855554563
3.758782375138253,0.5200800114870072,-0.1489810248836875,-0.16691140204668045,0.5661607371205708
3.7687703748233616,0.0600549978017807,0.14095268815755846,0.09106044352054596,0.17823093848704366
3.7787583749741316,0.06576071083545686,0.19460381537675858,-0.2022861796617508,0.28829640048207716
3.7887463751249015,-0.056983455419540405,0.32771308500319724,-0.43493256479501724,0.5475484601321013
3.79873437481001,0.41004242956638337,0.09313269674777985,-0.42578781187534337,0.5984177086198312
3.80872237496078,0.07163014590740205,0.005019323006272316,-0.4775640293955803,0.48293216250183596
3.81871037511155,0.4270835548639298,0.13032146338373424,-0.6007794812321663,0.7485452770028544
3.828699375037104,0.14287203669548035,0.0870904764533043,-0.2733935844898224,0.3205327159566897
3.838687375187874,0.10705140888690949,0.2004319179430604,-0.4891011705994606,0.5393078091004883
3.8486753748729825,-0.39320771098136903,-0.18600091662257912,-0.226309172809124,0.49033099703893634
3.8586633750237525,-0.3484139460325241,-0.007148805856704713,-0.7019833821058273,0.7837244745239665
3.8686513751745224,0.8370411998033525,-0.25201068229973317,-0.7143236383795739,1.1288957500625312
3.878639374859631,-0.24738809287548066,-0.023869430646300316,-0.6311060652136803,0.6782812718669446
3.888627375010401,-0.5652608621120453,0.12276200026273729,-0.6261800783872604,0.852462222924416
3.898615375161171,0.09526517629623414,0.2115398369729519,-0.698494348526001,0.7360155646207885
3.9086043750867248,0.48977272331714633,0.013060706332325936,-0.5848727157711983,0.7629705080859746
3.9185923752374947,0.095715411901474,0.08214314728975297,-0.45089049339294435,0.4681999292548726
3.9285803749226034,0.04604565382003784,-0.0035656321048736575,-0.3167764163017273,0.3201253096726145
3.9385683750733733,0.18237991869449616,0.23336266905069353,-0.4337821251153946,0.5252499425217507
3.9485563752241433,0.24949776828289033,0.0678072363138199,-0.429870337843895,0.5016327990001107
3.958544374909252,-0.38471989274024965,0.17986521396785976,-0.631029466688633,0.7606307112489699
3.968532375060022,-0.014859529137611389,-0.00020311765372753145,-0.6837310060858727,0.6838924882948872
3.978520375210792,0.530069979429245,-0.1688340761885047,-0.5943457898497582,0.8140798770923398
3.9885093751363456,-0.6026046895980836,-0.19913157027214767,-0.6531717029213906,0.9107244740874615
3.9984973748214543,-0.1823050743341446,-0.02671183526515961,-0.492309245467186,0.5256586872141286
4.008485374972224,-0.1395648515224457,0.1194389545172453,-0.35300488740205765,0.397940274622203
4.018473375122994,0.29117847561836246,0.09697493869811297,-0.09971695393323898,0.3226956992286383
4.028461374808103,-0.2356784588098526,0.07225715015083552,-0.18360988050699234,0.3073727702882931
4.038449374958873,0.23591468632221224,0.02272889468818903,-0.1992044046521187,0.3096041613238744
4.048437375109643,0.15769648253917695,0.0887097166478634,-0.2933407759666443,0.3446540370831106
4.058425374794751,0.4011920839548111,-0.17113711170852186,-0.4139118245244026,0.6013035819892139
4.0684143751859665,-0.11780034542083741,0.03300840944051743,-0.3158239048719406,0.33869044179548685
4.078401499893516,0.13980575680732726,-0.038874738179147245,-0.5230080047249794,0.5427653893823471
4.088389500044286,0.7222398912906647,-0.14043857172131538,-0.29285428762435917,0.7919072463228538
4.098377500195056,0.45148924827575687,-0.10213079418987037,-0.17293929666280747,0.4941469829521255
4.108365499880165,-0.09367414891719819,0.04790930762887001,0.09515641808509827,0.14186222836127008
4.118353500030935,0.25061166286468506,0.08637433871626854,-0.10946806311607361,0.2867925884587325
4.128341500181705,0.33202303111553194,-0.16822684284299613,-0.008136108219623565,0.37229794533549204
4.138329499866813,0.19983911991119385,0.020384855568408966,-0.16409216701984405,0.25937898037561524
4.148318499792367,0.3609322500228882,0.00660976566374302,-0.4089270731806755,0.5454696410331448
4.158306499943137,0.22068385899066925,-0.08456981487572193,-0.34721672862768177,0.4200153281084354
4.168294500093907,0.388555081486702,-0.10859828978776932,-0.356601802110672,0.538454719695672
4.178282500244677,-0.02369525671005249,0.06365542083978654,-0.1544875305891037,0.1687598142342094
4.188270499929786,0.49555971264839177,-0.10098945423960687,-0.33877481102943424,0.6087254481749544
4.198258500080556,0.43719339072704316,0.061108227521181106,-0.4651495134830475,0.6412771212663876
4.208246500231326,0.016701402068138124,-0.18232904791831972,-0.39570856511592867,0.4360138610777755
4.218235500156879,0.13164245903491975,0.05110207010060549,-0.5575469228625298,0.5751519188725736
4.228223499841988,-0.008325265645980835,0.19229171667248013,-0.6896641758084298,0.7160182188620945
4.238211499992758,0.7131346070766449,-0.1568913209438324,-0.42249173641204835,0.8436083935893057
4.248199500143528,-0.27556231677532195,-0.07465315639972687,-0.4958778011798859,0.5721909453058686
4.258187499828637,0.26548990309238435,-0.10408303331583739,-0.487157556116581,0.5644826400782482
4.268175499979407,-0.1107369089126587,-0.17765547808259727,-0.3931308200955391,0.4453941777765823
4.2781635001301765,-0.30836285769939425,-0.13808112055063249,-0.5622752737998963,0.6559783010037783
4.288151499815285,-0.2041976344585419,-0.21464755900204183,-0.4325702896714211,0.5242969616643
4.2981405002065,-0.43882885694503787,0.1689513859525323,-0.8502988842129707,0.9716601921437314
4.308128499891609,0.6024631869792939,-0.4203169741854072,-0.5342983934283256,0.9083518171246832
4.318116500042379,-0.7850097513198853,-0.008930964097380638,-0.7575445023179055,1.0909600106232584
4.328104500193149,-0.39708032190799714,-0.06153997130692006,-0.7486497178673744,0.8496683765904876
4.3380924998782575,-0.32747915983200077,-0.011548324003815651,-0.5279845699667931,0.6214045944749601
4.3480805000290275,-0.18546432495117188,0.06784911699593067,-0.7044424286484718,0.7316007475302897
4.358068500179797,0.30160815417766573,-0.2722918228805065,-0.23267474412918093,0.4682390970750174
4.368056499864906,-0.745102504491806,-0.03603565916419029,-0.6182226026058197,0.9688526705872637
4.37804549979046,-0.39341996490955355,-0.3786026088148356,-0.4626553836464882,0.7156599808623597
4.38803349994123,-0.30400726675987244,-0.23184955582022668,-0.6056943583488464,0.7162683090242549
4.398021500092,-0.8194703167676926,-0.26733791559934617,-0.5527934288978577,1.0240028008814215
4.40800950024277,0.018454397320747377,-0.2426926325261593,-0.655905568599701,0.6996087432151248
4.417997499927878,0.16440090000629426,-0.3253536969423294,-0.7015191131830216,0.7905768464849029
4.427985500078648,-1.2514327883720398,-0.07287341013550759,-0.6127425920963288,1.3952949659073253
4.437973500229418,-0.29160298347473146,-0.14697246976196768,-0.5984610602259636,0.6817542427048631
4.447961499914527,0.09009857654571533,0.08122045665979385,-0.4303843080997467,0.4471522880787789
4.457950499840081,-0.7652379763126373,-0.39681895136833195,-0.3364446955919266,0.9253374918093762
4.467938499990851,-0.004421079754829407,-0.17707415521144867,-0.2436002665758133,0.3011907904731718
4.477926500141621,-0.30459900498390197,-0.15083704076707363,-0.3904715064167977,0.5176875158123424
4.487914499826729,0.0007472741603851319,-0.27834997683763507,-0.34894194960594177,0.44636280335504924
4.497902499977499,-0.120052108168602,-0.1490755670517683,-0.374209814965725,0.42032013868504337
4.507890500128269,-0.0820984160900116,-0.3164688527584076,-0.48624392867088323,0.5859401359012765
4.517878499813378,0.475793200135231,-0.37743820890784263,-0.26411171436309816,0.6622641229164532
4.527866499964148,0.05608649253845215,-0.34402721866965297,-0.39681895136833195,0.5281720382563864
4.537855499889702,0.29792557775974277,-0.23037130661308766,0.01327113300561905,0.3768377791110528
4.5478435000404716,-0.2127825164794922,0.07957410000264645,-0.18198318511247635,0.2910778527718287
4.5578315001912415,0.43426802873611453,-0.17241575159132483,0.07263498991727829,0.47285489734107156
4.56781949987635,0.3858063054084778,-0.11441758498549462,0.032761949300765994,0.40374649765519766
4.57780750002712,0.5939513951539993,-0.10475140661001206,0.060880624651908875,0.6061827838615717
4.58779550017789,0.594102253317833,-0.13844825260341168,0.01213852733373642,0.6101415818415399
4.597783499862999,0.6890358924865723,-0.09421450473368169,-0.01327464133501053,0.6955738998406663
4.607771500013769,0.29545045137405396,-0.06495532996952534,0.07548550754785538,0.3117823374701323
4.6177604999393225,0.5943647933006287,0.017283711656928064,-0.03416089564561844,0.5955965085485725
4.627748500090092,0.7026587355136872,0.08166820719838143,0.044605484604835516,0.7087937950613872
4.637736500240862,1.0408499944210052,-0.29756612017750744,-0.034438346028327946,1.0830975516733792
4.647724499925971,0.5061484354734421,0.042456413581967355,-0.0006522569060325623,0.5079263836674835
4.657712500076741,0.5884053111076355,-0.09020726166665555,-0.0642927673459053,0.5987417808455198
4.667700500227511,1.0819015413522721,0.2415042590349913,-0.01943117469549179,1.1086987069815266
4.67768849991262,0.774124574661255,-0.0932758804410696,0.0018024042248725892,0.7797259105785285
4.687677499838173,0.7783117657899857,0.1806989172846079,-0.10503792017698288,0.8058872552349128
4.697665499988943,0.202511882185936,-0.03762763671576977,-0.193037346303463,0.28229473700228186
4.707653500139713,0.8156509155035019,0.011061250939965248,-0.45926282912492755,0.9361255863664288
4.717641499824822,0.3306085896492005,-0.14873650163412094,-0.2261410653591156,0.42727551756442367
4.727629499975592,0.5418345773220062,-0.2520283701270819,-0.6003701761364937,0.8470816707524694
4.737617500126362,0.6835523736476898,-0.26554866760969165,-0.3494483184814453,0.8123263320108385
4.7476054998114705,-0.09616857111454011,-0.10287883579730989,-0.6125736075639725,0.6285529998410333
4.7575934999622405,0.6634432142972947,-0.030359547659754755,-0.26312207311391833,0.7143611314251338
4.767582499887794,-0.7131819695234299,0.1462912691384554,-0.6229889604449272,0.958198779959414
4.777570500038564,1.2018858218193056,-0.282425851598382,-0.35589925915002824,1.284896172071844
4.787558500189334,-0.8338936436176301,-0.21669788517057897,-0.371086817085743,0.9381055420996702
4.797546499874443,0.4754487991333008,-0.14227218545973302,-0.7004265609383583,0.8584231489310632
4.807534500025213,-0.13927716851234437,-0.16342938512563707,-0.3283509796857834,0.3923285096089418
4.817522500175983,-0.6712971943616868,0.2407509183883667,-0.8176342910528184,1.0849547279809233
4.827510499861091,0.47779411733150484,-0.4878669695556164,-0.3821962344646454,0.7825441586127436
4.837498500011861,-1.2608058750629425,-0.10895058453083038,-0.7335869979858399,1.4627547874051614
4.847486500162631,0.4231852161884308,-0.47220761440694337,-0.5945393326878547,0.8692196364655282
4.857475500088185,-0.31091575205326083,-0.2735649809986353,-0.4878077664971352,0.6398928197429253
4.867463500238955,-1.0749339991807938,-0.07676056601107122,-0.4575741532444954,1.1707900720481754
4.877451499924064,-0.061337292194366455,-0.34901182383298873,-0.22996455967426302,0.42243959958216976
4.887439500074834,-0.584128657579422,-0.11254603743553163,-0.4756195378303528,0.7616343242750658
4.897427500225604,0.17947151362895966,-0.44680350892245774,-0.2038564494252205,0.5228774729914726
4.907415499910712,-0.2961608880758286,-0.0930609952658415,-0.46857159644365315,0.5620773625218206
4.917403500061482,-0.6711141765117645,-0.062088878676295284,-0.39510308593511584,0.781252657778388
4.927392499987036,-0.1707281720638275,-0.2530541179329157,-0.4178616186976433,0.5174870314507182
4.937380500137806,-1.1530528002977372,-0.18085649974644186,-0.43355320662260055,1.245073578848948
4.947368499822915,0.29327119410037994,-0.494463871344924,-0.5053318718075752,0.7654167583865797
4.9573564999736845,-0.2519524294137955,-0.32439533829689027,-0.4165211445093155,0.584980534735659
4.9673445001244545,-0.36526211321353913,-0.09214327476918698,-0.4283152708411217,0.5704040372140731
4.977332499809563,-0.33094012677669526,-0.09028422564268113,-0.37142975628376007,0.5056012982221141
4.987320499960333,-0.14848185539245606,0.0792590081691742,-0.42195671617984776,0.4542866078655941
4.997308500111103,0.2215217649936676,-0.3290445325523615,-0.39083052545785907,0.5568578780965373
5.007297500036657,-0.16215089142322542,-0.03780100665986538,-0.29605534583330156,0.33966247289084145
5.017285500187427,-0.1626677852869034,-0.19109007731080055,-0.3750351494550705,0.45125113777538656
5.0272734998725355,0.18266350865364075,-0.14041247852146627,-0.3702600207924843,0.4360895602000246
5.037261500023305,-0.15941147089004518,-0.09690955951809883,-0.0656683248281479,0.19777716921590016
5.047249500174075,-0.1563001674413681,-0.22584643878042698,-0.539767294228077,0.6056278462639415
5.057237499859184,0.7910183501243592,-0.06152082167565823,-0.2657837256789208,0.8367411968875916
5.067225500009954,-0.3849350702762604,-0.1040721794217825,-0.4108385279774666,0.5725332505006857
5.077213583514094,0.2737455868721008,0.02156306952238083,-0.4274221086502075,0.5080268410843739
5.087202583439648,-0.15275090754032136,-0.010499406605958939,-0.1475960022211075,0.21266795048883652
5.097190583124757,0.5639236038923264,-0.1323091147094965,-0.23330302745103837,0.6244564320110252
5.107178583275527,0.6064556658267976,-0.19351192094385625,0.08790908664464951,0.642622241815129
5.117166583426297,-0.06296047925949097,0.05553721971809864,-0.3845634797215462,0.39362097842740196
5.127154583577067,0.7981355810165406,0.011169424429535866,0.07979841381311417,0.8021925882067142
5.137142583262175,0.026246981620788576,-0.0156824516505003,-0.18275677174329757,0.18529673756438364
5.147130583412945,0.5228311264514923,-0.20001153968274593,-0.19040960758924486,0.591280662169066
5.157118583563715,0.5431186258792877,-0.15339848667383194,-0.09379284739494324,0.5721066646293143
5.167107583489269,0.8918342882394791,-0.14541235953569412,-0.015265325903892518,0.9037401076417424
5.177095583174378,1.1012610876560212,-0.14244533613324167,0.043048371076583866,1.1112694629223743
5.187083583325148,0.516356504559517,0.021656040251255036,0.1060322391986847,0.5275754539682201
5.197071583475918,0.811055588722229,-0.08760598160326481,0.17515480667352679,0.8343651372816782
5.207059583161026,1.077495664358139,-0.012820678129792214,0.2994315281510353,1.1184008747086884
5.217047583311796,0.27661890864372257,-0.2192804541438818,0.21567776530981064,0.41366512620454843
5.227035583462566,1.2403610855340959,-0.18520383149385453,0.5878737992048264,1.3850601739631536
5.237023583147675,1.002832567691803,0.23011359058320524,0.3073375484347344,1.0738164610734473
5.24701258353889,1.401823759675026,-0.119634178429842,0.622949491739273,1.5386644400570992
5.2570005832239985,0.3198959058523178,-0.15600049763917923,0.21589148104190828,0.416267555102743
5.2669885833747685,1.1381570184230805,-0.025659848079085352,-0.2704252454638481,1.170123771134208
5.2769765835255384,0.6644202840328217,-0.3517553374171257,-0.3347957807779312,0.8229667952368407
5.286964583210647,0.23190583527088166,0.3811500944942236,-0.15892644435167314,0.473617277640825
5.296952583361417,0.8838148319721222,-0.07410256795585156,-0.2078910282254219,0.9109547340061335
5.306940583512187,1.0160034209489823,0.04449774965643883,0.26685288906097415,1.0514054715021748
5.316928583197296,0.44638872206211094,-0.11664946720004082,0.2107892006635666,0.5072495209447548
5.326916583348066,0.5484068477153778,-0.13222316063940526,-0.08893995076417924,0.5710896161483995
5.336905583273619,0.6390381056070328,-0.042595723494887355,-0.29730664998292927,0.7060986759667165
5.346893583424389,0.16299464464187624,-0.36331235915422444,-0.2577177840471268,0.47432223299177234
5.356881583575159,0.3801789450645447,0.20025142170488835,-0.9411944362521172,1.0346417877686749
5.366869583260268,0.1630279737710953,-0.4946978330612183,-0.5528899079561234,0.7595994448306979
5.376857583411038,0.04058610856533051,0.10352327205240727,-0.8861335453391076,0.8930828406369533
5.386845583561808,0.2930320429801941,-0.11014677867293358,-0.5629944813251495,0.6441761227084909
5.3968335832469165,-0.5670331531763078,-0.13875340417027474,-0.48769930064678196,0.7606771403304203
5.40682258317247,0.12549586594104767,-0.07367140889167786,-0.37008723556995393,0.3976697760556977
5.41681058332324,0.12866973459720613,-0.02476142339408398,-0.15096487551927568,0.19989853008555852
5.42679858347401,-0.6546267825365066,0.264431776329875,-0.566997192800045,0.9055088102222988
5.436786583159119,-0.04323665142059326,0.05682229153811932,-0.2049323371052742,0.21701484657308276
5.446774583309889,-1.2001480293273927,-0.07488974936306476,-0.5597226718068123,1.326368439081933
5.456762583460659,0.7744432479143143,-0.022621707916259767,-0.4520856642723084,0.8970259381699366
5.4667505831457675,-1.4086521381139756,-0.18812824331223965,-0.417611942589283,1.481247047841115
5.476738583296537,0.418542526960373,-0.09655434116721154,-0.7227398282289506,0.840745768339646
5.486726583447307,-0.2417811977863312,-0.3780115284025669,-0.5533120769262314,0.7123939343373563
5.496715583372861,-1.4597825306653978,0.23490845359861853,-0.2818050965666771,1.5051781060256362
5.506703583523631,-0.28644632399082187,-0.3445163382589817,-0.32197342157363895,0.5517335299354827
5.51669158320874,-0.3403477120399475,0.09337016679346562,-0.5264485064148903,0.6338001128465783
5.52667958335951,-0.551293033361435,-0.28312327824532985,-0.38833201020956043,0.7313580173011252
5.53666758351028,-0.5699585151672364,-0.11419473297894002,-0.5570007929205895,0.8050733068273582
5.546655583195388,-0.04796412527561188,-0.09365404911339284,-0.608701288998127,0.6177288219411247
5.556643583346158,-0.504246336221695,-0.17510408207774164,-0.4061107617616654,0.6707098910646326
5.566631583496928,-0.05691913604736328,0.0775878008455038,-0.3820497617125511,0.393981821043861
5.576620583422482,-0.7456205677986145,-0.1696390550583601,-0.2718782785534859,0.8115696140656257
5.586608583573252,0.0035586154460906985,0.19921164058148863,-0.46886454194784166,0.509442734939876
5.596596583258361,-0.05674547374248505,-0.5068268586695195,-0.2596321624517441,0.5722782306172767
5.606584583409131,0.055249171257019045,0.35443701669573785,-0.539538375735283,0.6479041044937357
5.6165725835599005,0.33492266535758974,-0.3102892228960991,-0.12832650303840637,0.47425761459122956
5.626560583245009,-0.07393160998821259,-0.05767021089792252,-0.3168185162544251,0.33040234324549733
5.636548583395779,0.5974690800905228,-0.06340976469218731,-0.008818478286266328,0.6008892289613947
5.646536583546549,-0.09576394379138947,-0.017919596359133722,-0.10750836879014969,0.14508581675709556
5.656525583472103,0.12295700490474702,0.2109336268901825,-0.03983883440494537,0.24738341240862807
5.6665135831572115,0.1141914439201355,-0.003863547742366791,-0.004519312977790833,0.11434612829262839
5.6765015833079815,0.33195695757865906,-0.1668162386119366,-0.2341494119167328,0.43914579156638406
5.686489583458751,0.7794502186775208,-0.12293442003428937,-0.31086108058691025,0.8481097372682757
5.69647758314386,-0.002285676598548889,-0.26113299652934074,-0.43379557371139527,0.5063341445779698
5.70646558329463,1.0113847053050995,0.07359963431954385,-0.3710607969760895,1.07981574509246
5.7164535834454,-0.3249531626701355,0.169835302233696,-0.13720199167728425,0.3914881535044809
5.726441583130509,0.2979056972265244,0.14467436783015727,-0.003495757877826691,0.3311958596815752
5.736430583521724,0.6540104860067368,-0.0993787655979395,0.0037103506922721865,0.6615282469863233
5.746418583206832,0.5360633754730225,0.06849377252161504,-0.09662143796682358,0.5489909304101027
5.756406583357602,0.4587251776456833,-0.07032855570316315,-0.28491727709770204,0.5445665699821514
5.766394583508372,0.5392173635959625,0.24369893833994866,-0.5235561811923981,0.7900984828590457
5.776382583193481,0.0371315735578537,-0.004341996163129806,-0.3869301402568817,0.3887319643723334
5.786370583344251,0.1567328613996506,0.1720220147073269,-0.5087539547681809,0.5594527235421721
5.796358583495021,0.6866847270727158,-0.2145426745712757,-0.40797368466854095,0.8270471576573808
5.8063465831801295,0.1413827508687973,-0.05322325721383095,-0.47827066540718083,0.5015621863146239
5.816335583571345,0.22252046942710876,0.030396458208560944,-0.3508639293909073,0.41658708685377327
5.826323583256453,-0.4537480276823044,0.017588132321834565,-0.2727965837717056,0.5297306779314039
5.836311583407223,0.3921663218736649,0.08327304862439633,-0.3433096191287041,0.5278165583092443
5.846299583557993,-0.2838858282566071,-0.008702337965369225,-0.270998857319355,0.3925649944141727
5.856287583243102,0.781843484044075,0.1520751155912876,-0.45527122735977177,0.9174300871379542
5.866275583393872,-0.27975418567657473,-0.06294936954975129,-0.21502726256847382,0.3584156123524281
5.876263583544642,0.42781504154205324,0.0871401046961546,-0.28038363844156267,0.5188777238635461
5.88625158322975,-0.6118964999914169,-0.24550645887851716,-0.16333612203598022,0.6792418102668355
5.896240583155304,0.27235745787620547,-0.08469129078090191,-0.29492683321237567,0.4102840924817885
5.906228583306074,-0.3781493765115738,-0.10801057152450086,-0.42022038549184804,0.575541837662614
5.916216583456844,0.49513695895671844,0.15898857101798058,-0.4227618777751923,0.670198164082276
5.926204583141953,-1.2848981577157974,0.1671724071353674,-0.35223013132810593,1.342749401349447
5.936192583292723,0.5878182506561279,0.03737606026232243,-0.3524955949187279,0.6864258227385324
5.946180583443493,-0.09471670746803285,-0.22928321287035944,-0.1408243417739868,0.28526048028743156
5.956168583128601,-0.04089074850082398,0.18127391785383226,-0.08673642754554749,0.20507436326952128
5.966156583279371,-0.08941503703594209,0.0040163427963852884,-0.17512440115213396,0.1966716444648046
5.976144583430141,-0.5811372220516206,0.3030662304908037,-0.3177795061469078,0.7283909839123163
5.986133583355695,-0.43728285312652593,-0.06076675012707711,-0.40133943378925324,0.5966424663680585
5.996121583506465,-0.10674559950828552,-0.212896171733737,-0.42808372110128406,0.48987250915435754
6.006109583191574,-0.23015810251235963,-0.1417492251098156,-0.7579061526060105,0.8046659748798679
6.016097583342344,0.06822121918201447,-0.1769449317455292,-0.4410765266418457,0.4801168045085959
6.0260855834931135,-0.6543332523107529,0.3699186895787716,-0.5913821285963059,0.9564123922254149
6.036073583178222,-0.17575443863868714,0.10331898495554924,-0.2737397396564484,0.3413178583382727
6.046061583328992,0.4798681247234345,0.17522120911628009,-0.13194212883710862,0.5276216585886377
6.056049583479762,-0.16497451186180115,0.060551864951848985,0.20259198904037476,0.26819140914004286
6.066038583405316,-0.28665974736213684,0.3044450770318508,-0.2090531623363495,0.46750811797174363
6.076026875060052,0.4060020035505295,0.10914237320423127,-0.12151391208171845,0.43762462835756794
6.086014875210822,-0.22102182805538179,0.050846071690320974,-0.20575357854366302,0.3062197031002468
6.09600287489593,0.01260133445262909,-0.2958427264541388,-0.4284743151068688,0.5208377397348484
6.1059908750467,0.5816775047779084,-0.1190862212330103,-0.3400889727473259,0.6842446616792436
6.11597887519747,0.5352734166383744,-0.055457185953855515,-0.2886384451389313,0.6106597105146687
6.125966874882579,0.028282397389411927,0.3116617836803198,-0.011303544938564301,0.3131465017161604
6.135954875033349,-0.28157091557979586,0.23978028059005738,-0.11464109480381013,0.38719419427221186
6.145943874958903,0.2616278171539307,0.2202954576909542,0.13013855516910552,0.3659443221714198
6.1559318751096725,0.7160880357027054,-0.0563218429684639,0.12089176833629608,0.7284017054643681
6.165919874794781,0.3813372784852982,0.14483918622136116,-0.08269366264343263,0.4162147903057096
6.175907874945551,0.15486175239086153,0.1155490943044424,0.070846326649189,0.2057983419462582
6.185895875096321,0.5434437310695649,0.1896888651698828,-0.2678670886158943,0.6348745794027376
6.195883875247091,0.38579051792621616,0.03324408877640963,-0.17799655348062515,0.4261716393794089
6.2058718749322,0.29443128168582916,-0.067796382419765,-0.23477360218763352,0.3826287670687141
6.21585987508297,0.44054735362529757,-0.045604006312787534,-0.31561194330453873,0.5438497907828016
6.22584787523374,0.6970600265264512,0.02335703182965517,-0.24761642664670946,0.7401027808772466
6.235836875159293,-0.01506652057170868,0.2177823244035244,-0.1540256005525589,0.26717040721291735
6.245824874844402,0.56292431473732,0.25190170481801033,-0.13752826631069184,0.6318641286282407
6.255812874995172,0.5163670295476914,-0.01084987409412861,-0.03203543275594711,0.517473572198258
6.265800875145942,-0.22621649444103242,0.24039211861789228,-0.11316905826330186,0.3489548807496337
6.275788874831051,0.2214662164449692,0.03938834298402071,-0.3549613657593727,0.4202336228471444
6.285776874981821,0.496966552734375,0.013952406719326974,-0.4739486959576607,0.6868753821399607
6.2957648751325905,-0.2863211935758591,0.008459459245204927,-0.4007471108436585,0.49259479817692486
6.305752874817699,0.10103111565113068,-0.015106208547949791,-0.5802861598134041,0.5892092252650105
6.315741875208914,0.22093938231468202,0.003941059894859791,-0.5858760979771614,0.626163353120919
6.325729874894023,-0.12623261511325837,0.15492230761796236,-0.5478715351223946,0.5831799152177447
6.335717875044793,-0.1713994324207306,0.04930459946393967,-0.4265631526708603,0.46234709059207
6.345705875195563,-0.33689727008342746,0.04547032434493303,-0.399220110476017,0.524351044238669
6.3556938748806715,-0.15478690803050996,-0.09343243964016439,-0.30560852676630024,0.35508474947120294
6.3656818750314415,-0.2308194226026535,-0.04665756493806839,-0.3611719858646393,0.43116091843994814
6.375669875182211,0.16819866657257082,0.1354286773502827,-0.5514374595880509,0.5922119467914854
6.38565787486732,-0.5920364320278168,0.10043170295655728,-0.42339191526174547,0.7347478327399074
6.395646874792874,-0.39029287397861484,0.12913663476705553,-0.6013796979188919,0.7284657431797767
6.405634874943644,-0.4892704474925995,-0.035171294510364534,-0.45475140988826757,0.6688956836028399
6.415622875094414,-0.30442768156528477,-0.028050628378987315,-0.49443149238824846,0.5813136431574104
6.425610875245184,0.050421710014343264,0.051336251087486746,-0.41969355136156083,0.42581737467013614
6.435598874930292,-0.6573808211088181,0.1932468593493104,-0.33289689749479295,0.761783589329499
6.445586875081062,-0.7560759741067887,0.13884918887168168,-0.09189045578241349,0.7741923738553314
6.455574875231832,-0.16077328741550445,0.18937640458345414,-0.1685886758565903,0.30022260772037634
6.465562874916941,0.024448962807655336,-0.19518250700086356,-0.10736745089292526,0.22410205785033965
6.475550875067711,-0.27448525965213777,-0.01279765471816063,-0.3441770535707474,0.44041319455396416
6.485539874993265,-0.10369042932987213,0.25561220169067383,-0.272697765827179,0.3878831966905783
6.495527875144035,0.008381398916244507,0.2063331837952137,-0.2256200784444809,0.3058562577096574
6.505515874829143,-0.26868423700332644,0.22101291105151177,0.015405659079551697,0.3482459768571613
6.515503874979913,-0.18453110933303835,-0.059459897428751,-0.21814675211906434,0.2918479315911214
6.525491875130683,0.42693503558635715,-0.053308918923139575,-0.30310445666313174,0.5262961876139045
6.535479874815792,-0.05738048136234284,0.28603351056575776,0.09919392049312592,0.3081349098540154
6.545467874966562,-0.31922932326793674,0.32336878649890427,-0.10707216650247574,0.4668395674698243
6.555455875117332,0.4620411336421967,0.3843970168009401,0.09200681537389756,0.6080364543167415
6.5654448750428855,0.1570170360803604,0.0763582044839859,0.16024177551269533,0.23698597348986808
6.5754328751936555,0.3388683664798737,-0.06066720128059388,0.03117150664329529,0.34566449331450155
6.585420874878764,0.11877098321914674,0.20810160107910633,-0.2395747509598732,0.3388345969997981
6.595408875029534,0.14213528752326965,0.23598357383161783,-0.24922265678644182,0.3714870384459702
6.605396875180304,0.39570213317871095,0.24499424278736115,-0.12920241594314577,0.48300685449243924
6.615384874865413,0.37556666135787964,0.0023368762806057933,-0.2066467407345772,0.42867079859780355
6.625372875016183,0.3453289550542832,0.029922979921102526,-0.09920035243034363,0.3605387383465835
6.635360875166953,0.9772545075416565,0.12346702829003335,-0.011409087181091309,0.9850891568053946
6.645348874852061,0.24442180037498476,0.2829757091403008,0.06577942192554474,0.3796632729286095
6.655337875243276,0.415459874868393,0.1811753922700882,0.18445217192173005,0.4893404071978162
6.665325874928385,0.4091501444578171,0.12487152948975563,0.12178756177425386,0.44477966431693033
6.675313875079155,0.904693484902382,0.30775672070682053,-0.053005886971950536,0.9570758197858285
6.685301875229925,0.3689306563138962,0.032425917126238345,-0.08999128013849259,0.38112950524807776
6.695289874915034,-0.15560142517089845,0.3271116623282433,-0.26176931977272033,0.4469194781172936
6.7052778750658035,0.9058430474996567,-0.2506714506447315,-0.1562797021865845,0.9527912406121957
6.7152658752165735,-0.1878570055961609,-0.06253370560705662,-0.18339411824941637,0.26987797519802714
6.725253874901682,1.082261729836464,-0.003018990531563759,-0.01930838316679001,1.0824381644384868
6.735242874827236,0.3282352048158646,0.27673884965479373,-0.14107664912939072,0.45191300215677394
6.745230874978006,0.19859132409095764,0.3387153156101704,0.025451760292053222,0.3934645741805242
6.755218875128776,-0.15825723052024843,0.320963205434382,-0.13989317268133164,0.38423017843149854
6.7652068748138845,0.5412369918823242,-0.06693146958947183,-0.17714139819145203,0.5734076891326589
6.7751948749646544,0.31341426730155947,0.10395169023424387,-0.34991814225912093,0.48112073654416926
6.785182875115424,0.9256686168909073,-0.10521381173282862,-0.36518025219440464,1.0006442679937988
6.795170874800533,0.1484233832359314,0.10510830603539945,-0.3928220871090889,0.4328815644140692
6.805158874951303,-0.12993507206439972,0.31728826694190504,-0.15509417921304702,0.37630994102886395
6.815146875102073,-0.3210741198062897,-0.06646274216473103,-0.22192902356386185,0.39592723827169096
6.825135875027627,0.4676877897977829,-0.11414861306548119,-0.17076734840869903,0.5108064818238371
6.835123875178397,-0.04566149175167084,-0.08989578779786826,-0.3010710874199867,0.3175059435239607
6.845111874863505,-0.03596213042736054,-0.024422065615653993,-0.13244879007339477,0.13940012233034804
6.855099875014275,-0.6237897366285324,0.28353243716061116,-0.4344098237156868,0.8113052282501475
6.865087875165045,0.1693248403072357,-0.061566027961671356,-0.38147614985704426,0.4218830765197891
6.875075874850154,-0.14937706410884857,0.014415433108806611,-0.3558153516054154,0.38616819707425276
6.885063875000924,-0.020305625796318054,0.1555188697949052,-0.41908777981996537,0.4474740266157272
6.895051875151694,-0.21946763813495637,-0.057635419964790345,-0.29396642804145817,0.3713544757216583
6.905040875077248,0.24983281373977662,0.2405332923308015,-0.20973173171281817,0.40529014153799287
6.915028875228018,-0.562103950381279,-0.16499585419893265,-0.07534078896045686,0.5906443239533069
6.925016874913126,0.11136139154434205,-0.014498025029897691,-0.38612965643405917,0.40212891444702703
6.935004875063896,-0.30147483766078953,-0.12734369572252036,-0.426641797721386,0.5377050475361053
6.944992875214666,-0.28202290534973146,0.06230836853384972,-0.29293497920036315,0.4113759277964266
6.954980874899775,-0.43995444595813754,0.2909203575924039,-0.3277747365832329,0.6209918251653814
6.964968875050545,0.3939017754793167,-0.03574110567569733,0.08308191776275635,0.4041517541961396
6.974956875201315,0.016412549614906312,0.005509100407361985,-0.09777480125427247,0.09929568838813012
6.984944874886423,0.2782958900928497,0.010266248881816865,0.20109568655490875,0.3435017808682584
6.994933874811977,-0.4092694276571274,0.1087718790024519,-0.059689254462718964,0.4276629434202032
7.004921874962747,0.2617669808864594,0.1941667725518346,-0.07545276314020158,0.3345382000775087
7.014909875113517,-0.5491330718994141,-0.021061670780181885,-0.1840890598297119,0.5795511250776131
7.024897874798626,0.0980502051115036,-0.053120784759521485,-0.25262895226478577,0.27614678708664847
7.034885874949396,0.2288799011707306,-0.09032091692090034,-0.5087469381093979,0.5651259366097464
7.044873875100166,0.3006743538379669,0.01044656239449978,-0.264247662127018,0.40042605392423675
7.0548618752509356,-0.45437367975711823,0.4323760524764657,-0.08722262352705003,0.6332553021223724
7.064849874936044,0.46644525647163393,0.07910698056221009,-0.04570651531219483,0.47530850739340036
7.074837999884039,-0.5830866837501526,0.18925449013710022,0.15090084850788119,0.6313306652493627
7.084826999809593,0.4480177563428879,0.2693009720742703,-0.023636784553527832,0.5232605671581722
7.094814999960363,0.09572769105434419,0.12347758982330562,-0.224599446952343,0.27359718126191795
7.104803000111133,-0.047947753071784976,0.2659151418507099,-0.18825461626052858,0.3293169449535127
7.1147909997962415,0.16117557585239412,-0.04695496894419193,-0.12478864520788194,0.2091758622134005
7.1247789999470115,0.9923379850387574,-0.07620456889271736,-0.31931761622428895,1.0452299043282622
7.134767000097781,-0.25498187184333804,-0.2522867439687252,-0.2740665990114212,0.451416500412602
7.144755000248551,0.4544660657644272,0.2426845195144415,-0.20868449538946152,0.5558636519501039
7.15474299993366,0.3643756753206253,0.3369143731892109,0.05522636711597443,0.49933043092892804
7.164731999859214,0.15664983093738558,0.36091828979551793,0.4816687747836113,0.62193728787007
7.174720000009984,1.0521473997831345,0.18886437121778726,0.5569785735011101,1.205366762825835
7.184708000160754,1.1035309767723085,-0.042535570263862614,0.3456546449661255,1.1571806362968469
7.194695999845862,0.42537265956401826,0.32841957483440637,0.26359335869550704,0.5985672688907712
7.204683999996632,0.6353841805458069,0.4963640702515841,-0.039077234566211705,0.8072282065103578
7.214672000147402,-0.19579577028751374,0.17473775401711464,0.011413764953613282,0.262677635842572
7.224659999832511,0.5291361790895462,0.15478793129324914,-0.17756181299686433,0.5791999629922825
7.234647999983281,0.9372981441020966,-0.26651532199233774,-0.13536684304475785,0.9838101493630863
7.244636000134051,0.8783494395017625,0.13188818827271462,0.3096352118253708,0.9406201127347116
7.254625000059605,-0.12790784239768982,0.37510970145463945,0.1505482614040375,0.423948680012097
7.264613000210375,0.27771876990795136,-0.07822785168886186,0.3766980975866318,0.47449843905373157
7.274600999895483,0.25167994916439057,0.23904163107275964,-0.09182759821414949,0.3590487515520627
7.284589000046253,0.5654596674442292,0.03249765515327454,-0.16800512373447418,0.5907846093946891
7.294577000197023,0.23348575294017793,0.026536272615194322,-0.40388238787651065,0.4672694659692434
7.304564999882132,0.09614986002445221,0.33933208722621205,-0.5957497063279152,0.6923212936157724
7.314553000032902,0.7266814363002777,-0.19460820078849794,-0.29513236284255984,0.8081097532356625
7.324541000183672,-0.10941777706146241,-0.10686561360955239,-0.5857799112796783,0.6054177184127054
7.33452899986878,-0.4380207717418671,0.0010817348957061768,-0.2960761034488678,0.5287006957260318
7.344517999794334,0.2021856075525284,0.23953367426991465,-0.6961630636453628,0.7634778400154966
7.354505999945104,0.21425192177295685,0.04647396236658097,-0.14486359834671023,0.26277210142519425
7.364494000095874,-0.6723286432027817,0.2920919568836689,-0.2553642797470093,0.7762437961863098
7.374482000246644,-0.13252480387687685,-0.4413417709618807,-0.2875727900862694,0.543179060749193
7.384469999931753,0.006414980292320252,-0.2130675682425499,-0.37047432124614715,0.4274226986388743
7.394458000082523,-0.6251229017972947,0.06974200688302518,-0.6072026476264,0.8742640591720856
7.404446000233293,-0.9379764211177827,0.011529868729412557,-0.5617241737246513,1.0933740219122108
7.414433999918401,-0.4847335928678513,-0.1326160204410553,-0.35447224617004397,0.6149831202862681
7.424422000069171,-1.1380646324157715,-0.1623052579164505,-0.7237940812110901,1.3584594128273308
7.434410999994725,0.2002110028266907,-0.49854055009782317,-0.3731058606505394,0.6540910555851448
7.444399000145495,-1.1292499548196793,0.2571026569604874,-0.5443582355976105,1.2797004045241736
7.454386999830604,-0.11511062622070313,-0.18243426125496626,-0.20123806625604632,0.2950075850873001
7.4643749999813735,-1.3806205862760546,-0.06265931110829115,-0.15564440220594408,1.3907784052306276
7.4743630001321435,-0.2475079607963562,-0.0844810102880001,-0.3256700313091278,0.4176819376627868
7.484350999817252,-0.5539570248126984,-0.22351727351546288,-0.21981496274471285,0.6365115668592224
7.494338999968022,-0.48438334465026855,-0.3004415615648031,-0.39693209499120713,0.694584368183007
7.504327000118792,-0.7368456512689591,0.2264476787298918,-0.44767072409391406,0.8914197340237101
7.514316000044346,-0.6087354952096939,-0.16671069636940958,-0.154049574136734,0.6496788673674664
7.524304000195116,0.01272646486759186,-0.08197529565542937,-0.3378594294190407,0.3478949641101188
7.5342919998802245,-0.22112298488616944,-0.12221762448549271,-0.12177586734294892,0.2804672602051325
7.544280000030994,-0.174241179227829,-0.03180370029062033,-0.15531169563531877,0.23556991890306778
7.554268000181764,0.12317452132701874,0.3335058850049973,-0.09763563752174378,0.3686880195387206
7.564255999866873,-0.7347833383083344,0.05857886821031571,0.11806463956832887,0.7465100784133736
7.574244000017643,0.213759001493454,0.33825857497751716,-0.07994342476129532,0.4080474548724253
7.584232000168413,-0.08154410004615784,0.06670964084565639,0.26672220379114153,0.286775784244935
7.594219999853522,0.15921734333038332,0.014554487206041813,-0.12051374584436417,0.2002137818744154
7.604209000244737,0.5174815088510514,0.2189940867573023,-0.0511125585436821,0.564232235589484
7.614196999929845,-0.13698389053344728,-0.06997158318758011,0.08713871598243714,0.17678734271017188
7.624185000080615,0.13798551857471467,0.08310998439788819,-0.26318493068218235,0.3085669790841776
7.634173000231385,0.48655616998672485,-0.0864280965551734,-0.1515905275940895,0.5169007743102688
7.644160999916494,0.04405292272567749,0.15624593451619148,-0.17061415135860444,0.23550507573580937
7.654149000067264,0.24431362688541414,0.2861342654004693,-0.1534417560696602,0.4063327929467577
7.664137000218034,0.08625520169734956,0.04530795447528362,0.2786973014473915,0.29523711892755466
7.6741249999031425,0.6696623128652573,0.04735093507915736,0.09545257955789567,0.6780862181678469
7.684113000053912,0.5057747983932496,-0.02583241403102875,0.25829022645950317,0.5684974066685828
7.694101999979466,0.3702234756946564,-0.07794046103954315,-0.054221815466880804,0.38220432061269644
7.704090000130236,0.7354195153713227,0.39148731395602226,-0.252456459403038,0.8705391688326322
7.714077999815345,0.5815482813119889,0.22133512917906048,-0.034494771659374236,0.6231994321061853
7.724065999966115,0.3692902600765228,0.18764138951897621,-0.17518258094787598,0.44974828950820606
7.734054000116885,0.9283706152439118,0.002041591890156269,0.1493042662739754,0.9403020425764349
7.744041999801993,0.28440389156341556,-0.02188992887735367,0.03627495646476746,0.28754237077201583
7.754029999952763,0.4698880970478058,0.255107586979866,-0.009722750186920167,0.5347609153192624
7.764018000103533,-0.1749481076002121,0.17050758585333825,0.23587550997734072,0.33958347043620873
7.774005999788642,1.1235880959033966,0.026858636923134328,0.02368619352579117,1.1241586326657507
7.783995000179857,0.5054824376106263,0.0376308161392808,0.28119055420160294,0.5796522240346307
7.793982999864966,0.7409363633394241,-0.1572103961929679,0.06873782068490983,0.7605436813111472
7.803971000015736,0.6933242404460908,0.15097821447998286,0.02522401124238968,0.7100205450413872
7.813959000166506,0.22955057680606844,-0.09988645009696484,0.2769694492220879,0.3733401211058877
7.823946999851614,0.22517569005489352,-0.049213017448782925,0.14315358012914658,0.27132814078510853
7.833935000002384,0.9166504561901093,0.1897175896167755,0.09762803614139558,0.9411546398357501
7.843923000153154,0.4681017726659775,-0.04080611005425453,0.26216166794300083,0.5380642604089652
7.853910999838263,0.07186754286289215,0.45150313541293147,-0.3066964012384415,0.5505294792628899
7.863898999989033,0.40045708894729615,-0.15465717293322087,0.20667539209127428,0.4764445811675486
7.8738879999145865,0.25090811669826507,0.202376811504364,-0.12827329337596893,0.34693701828035084
7.8838760000653565,0.3652550965547562,-0.16389727201312781,0.3085584470629692,0.5054521902084119
7.893864000216126,0.3669297391176224,0.15231499761343004,-0.31966494083404545,0.5099244712164139
7.903851999901235,0.10718881845474244,0.10435587901622058,-0.01123864084482193,0.15001966316123597
7.913840000052005,-0.7252909684181214,-0.16718647699803116,-0.3726053389906883,0.8323659325106209
7.923828000202775,0.10600768089294434,-0.16223304480314255,-0.3997261869907379,0.4442276598778527
7.933815999887884,-0.3325533735752106,-0.08800395771861076,-0.522709504365921,0.6257488863792403
7.943804000038654,0.1820279163122177,0.13312608037143947,-0.49612718492746355,0.5449760538006053
7.953792000189424,-0.49333367764949804,0.10290123794227839,-0.34876682549715043,0.612866283001922
7.963781000114977,-0.27643413662910465,0.0768307325989008,-0.2853461703658104,0.40464951539325533
7.973768999800086,-0.13198919892311098,-0.23536296498030426,-0.28343237668275834,0.39134484290548854
7.983756999950856,-0.6208000552654267,-0.10124388121068478,-0.23402048081159593,0.6711248896736364
7.993745000101626,-0.8806491494178772,-0.07737412165850402,-0.5652330878376961,1.049294106844879
8.003732999786735,-0.281805973649025,-0.06421247776597738,-0.46816521495580676,0.550196798954463
8.013720999937505,-1.2243625187873841,0.30504215084016323,-0.5354976573586464,1.370719530843994
8.023709000088274,-0.07096531748771667,-0.385274720415473,-0.5018422535061836,0.6366461606587429
8.033697000239044,-0.4751540994644165,-0.04589461293071509,-0.7935709521174431,0.9260845478564502
8.043684999924153,-0.7635428684949875,-0.043269176557660105,-0.5273326054215431,0.9289508116204026
8.053673999849707,-0.7745216006040574,0.11972031522542238,-0.3700378265976906,0.8666860197286489
8.063662000000477,-0.6537882918119431,0.2491923974454403,-0.38411119759082796,0.7981712808474412
8.073650499805808,-0.4474412208795548,-0.19626230500638486,0.16411701768636705,0.515419182804514
8.083638499956578,-0.2892974263429642,0.1596534725278616,-0.15905566781759262,0.3667164267438368
8.093626500107348,0.3661848038434983,-0.13805298082530498,-0.03326510220766068,0.39275501665228857
8.103614499792457,-1.0185715180635453,0.07335617087781429,-0.016716897189617157,1.0213464250036706
8.113602499943227,0.09317772030830383,-0.11549712717533112,-0.3290888983011246,0.3610002450589958
8.123590500093997,-0.03830160140991211,-0.17536961875855925,0.016947862207889557,0.18030181886909463
8.133578500244766,-0.32407140254974365,0.08663866940885782,-0.10971920102834702,0.35294027265501193
8.14356750017032,0.5678160953521729,0.18950928255915642,0.11055564522743226,0.6087293626963693
8.153555499855429,-0.4079421097040177,0.2500760579109192,0.29356238543987273,0.561367681430966
8.163543500006199,0.2563700008392334,0.22322162367403509,0.35311656922101975,0.4901477145355309
8.173531500156969,-0.10499085009098054,0.08980782374739647,0.27610669255256653,0.308744926243959
8.183519499842077,0.8888913846015931,0.0672298237681389,0.021927058696746826,0.8916998030312235
8.193507499992847,-0.3474444776773453,0.19151319645345213,-0.11921040147542954,0.41425365333842856
8.203495500143617,0.6621609199047089,0.2431810212135315,-0.041693571209907535,0.706634592139206
8.213483499828726,0.39397837400436403,0.16939899031072855,0.23546942085027697,0.48924515864439755
8.223471499979496,0.5681552338600159,0.2576349363103509,0.350302304327488,0.7154633705419977
8.23346049990505,0.5667419618368149,0.16327593225985768,0.10751772433519365,0.5995127541664032
8.24344850005582,0.9050606900453568,0.6575560913980008,0.18355988681316376,1.1336706303185484
8.25343650020659,-0.460185227394104,0.5733371825516225,0.1003259414434433,0.7419914170221302
8.263424499891698,0.6697406655550003,0.41315241739153863,0.06864221870899201,0.7899109021173337
8.273412500042468,0.6086817008256913,0.18339579932391645,0.20873887449502945,0.6691033925001174
8.283400500193238,1.0162425720691681,0.02647173397243023,0.013644770085811615,1.016678856736954
8.293388499878347,0.15751580357551576,0.1982229495048523,-0.15921441972255707,0.2990866054072537
8.303376500029117,0.20964139223098757,0.29643673047423363,-0.22500904440879824,0.4271455472980618
8.313364500179887,-0.5439962929487229,-0.004737816117703915,-0.19348465830087663,0.5773999711130274
8.32335350010544,0.6644653075933457,0.1267726420238614,-0.3871660754084587,0.779411969184473
8.33334149979055,0.39703880667686464,-0.054889677129685885,-0.04052500516176224,0.4028584946431572
8.34332949994132,0.3875610548257828,0.15331158243119716,-0.20812140852212907,0.4658567732795844
8.35331750009209,-0.27746383130550384,0.24615403801202776,-0.1869167733192444,0.4153502958472928
8.36330550024286,0.01174939513206482,0.12608906596899033,0.04068492650985718,0.13301039090241884
8.373293499927968,-0.252975692152977,0.3115591285005212,-0.39970601409673695,0.5664191814172459
8.383281500078738,0.177274129986763,0.3333508607000113,-0.10264991730451585,0.39126195702447997
8.393269500229508,-0.1431222975254059,0.3956882825866342,-0.407612034380436,0.5858334060098217
8.403257499914616,0.5494377118349075,0.1253743900358677,0.021003198623657227,0.5639518341274098
8.41324649984017,-0.5885275179147721,0.09898488253355027,-0.08837832570075989,0.6033020593092425
8.42323449999094,-0.31834931731224064,-0.21932321190834048,-0.11848154604434967,0.4043350539688834
8.43322250014171,-0.6427212667465211,0.24579092592000962,-0.48434358358383184,0.8414823307424206
8.443210499826819,0.02501789689064026,-0.009986423067748548,-0.27457910746335984,0.2758972817298026
8.453198499977589,-1.0579145085811617,0.1364354582503438,-0.216688748896122,1.0884630244673765
8.463186500128359,0.03362616777420044,0.14407100826501848,-0.25333178758621216,0.29336695312066663
8.473174499813467,-0.2791776502132416,-0.4650062566995621,-0.06282131552696228,0.5460013707243455
8.483162499964237,-0.8574976837635041,-0.09436295092105866,-0.26543844759464263,0.9025875102325306
8.493150500115007,-0.9455000334978104,-0.18862500082701444,-0.2516738095879555,0.9964383627269007
8.503139500040561,-0.34055645763874054,-0.1661524334549904,-0.31033512353897097,0.48978895545368384
8.513127500191331,-0.9596339231729508,-0.08746349226683378,-0.4528279682993889,1.0647066722144516
8.52311549987644,-0.030305534005165103,-0.15932624772191048,-0.7102414047718049,0.7285232540260528
8.53310350002721,-0.26954260826110843,0.05870845712721348,-0.4464124032855034,0.5247703635054081
8.54309150017798,-0.7905441409349442,0.4409869180619717,-0.385130952000618,0.9837455722173633
8.553079499863088,-0.24072636008262635,0.29437767002731563,-0.1424068906903267,0.40606294532427856
8.563067500013858,-0.5480864202976227,0.038642055541276935,0.3510422694683075,0.6520142694179148
8.573055500164628,-0.002767487168312073,0.3656836974620819,0.14079919874668123,0.391863037224071
8.583043499849737,-0.21055472731590272,0.06279299307614565,-0.02696180373430252,0.22136664616681093
8.593032500240952,-0.058698443770408636,0.2018279041349888,-0.09133467793464661,0.2291768609218995
8.60302049992606,-0.595499153137207,-0.08658059924840927,-0.2176982706785202,0.6399281042505968
8.61300850007683,0.2071113020181656,-0.20012914180755617,-0.15883493542671204,0.3289001391551796
8.6229965002276,0.20685285508632661,0.05834834173321724,-0.16267947971820831,0.26955008024812027
8.632984499912709,0.1260560292005539,-0.16524695556610824,-0.09884864240884782,0.23014719839213885
8.642972500063479,-0.8390672600269318,0.03250602398067713,0.2581045773625374,0.8784693969055662
8.652960500214249,-0.09768416941165925,0.09443808764219284,0.3463247358798981,0.3720236175748005
8.662948499899358,0.5343630051612854,0.0520395614951849,0.40509013026952745,0.6725696624792066
8.672936500050128,0.6775215554237366,0.2445764592289925,0.1249865734577179,0.7310777975137064
8.682925499975681,0.43235131144523625,0.16072665587067606,0.2356229102611542,0.5179564366389536
8.692913500126451,0.5883216959238052,0.3922986151278019,-0.05859319388866425,0.7095447721574222
8.70290149981156,0.3839819741249085,0.24045157749205828,0.20735659271478654,0.49825282148078903
8.71288949996233,0.1316506451368332,0.03245456848293543,0.2438525739312172,0.2790148189491692
8.7228775001131,0.7703215456008912,-0.10828429430723191,0.00755811095237732,0.777931807455981
8.732865499798208,0.7892928367853165,0.4657780891656876,0.3533454877138138,0.9822349231396552
8.742853499948978,0.9461777257919312,0.28811270736157896,0.46875636845827107,1.0945290100761131
8.752841500099748,0.7821399378776551,0.5902852274850011,0.5546262386441231,1.1259617208425914
8.762829500250518,0.759107170701027,-0.15051624789834023,0.8455296027660371,1.1462195019475132
8.772818500176072,0.6000126188993454,0.3253314775228501,0.3831452375650406,0.782723441692162
8.78280649986118,1.2007315814495088,0.1269658925011754,0.32253855496644973,1.2497630927454626
8.79279450001195,0.3805829876661301,0.6834933167695999,-0.23668447226285935,0.8173286144384856
8.80278250016272,0.361429848074913,0.28571542203426364,0.23148132741451263,0.5156049286122631
8.81277049984783,1.4467099106311798,0.2396887716650963,-0.10690932154655457,1.4703230515143069
8.8227584999986,0.7547147423028946,0.20379947561770678,0.20811146825551988,0.8089740117771678
8.83274650014937,0.25842061936855315,0.19704312756657602,0.30002355873584746,0.4422910200677458
8.842734499834478,0.17702503859996796,0.0147165647149086,0.10985631823539735,0.20886084416320147
8.852722499985248,-0.18053863048553467,0.08133791260421276,-0.0016147086024284364,0.19802186851020706
8.862711499910802,0.9162850052118302,0.15480481512844563,-0.3188372674584389,0.9824458991126992
8.872699500061572,0.28990729093551637,-0.2217127862200141,-0.361461715400219,0.513670486412331
8.882687500212342,-0.17526210308074952,0.06971569441258908,-0.3118556919693947,0.3644599503888278
8.89267549989745,-0.26186989188194276,-0.355228875875473,-0.47244800806045534,0.6465063919639965
8.90266350004822,0.070268914103508,-0.3983330147713423,-0.1556350466609001,0.43339263802613576
8.91265150019899,-0.6732776463031769,0.4343276703357697,-0.6534854060411454,1.0339180287332277
8.922639499884099,0.28770815312862397,0.20993653044104577,-0.19088001608848573,0.40408477913953705
8.932627500034869,-0.8858935171365738,1.0088591466844083,-0.43058662176132206,1.4099677089895462
8.942615500185639,-0.3986397743225098,0.38971480362117294,-0.32336476653814317,0.6444812410548958
8.952604500111192,-0.8090505784749985,-0.17715846475213767,-0.1501795944571495,0.8417255317236004
8.962592499796301,-0.5795298224687576,0.03789891097694636,-0.2956559810042381,0.6516928737430591
8.972580499947071,-0.7991319465637208,-0.4052115330845118,-0.13331797868013381,0.9058597783336991
8.982568500097841,-0.8380872666835786,0.489727992117405,-0.36503758013248444,1.0370516900084956
8.992556500248611,-0.8817864328622819,-0.28065261036157607,-0.29900614321231844,0.9724802694972581
9.00254449993372,-1.159028069972992,-0.32012979447841644,-0.30324303567409516,1.2400747924955786
9.01253250008449,-0.7236911702156067,-0.29153921227902174,-0.872845747768879,1.170719318001766
9.02252050023526,-0.467709424495697,-0.11532434195280075,-0.12710501968860627,0.49820427099632897
9.032508499920368,-1.4350026154518127,0.14184987030923368,-0.48667866915464403,1.521909990462782
9.042496500071138,0.13268150925636293,-0.10035430043935777,0.20190844953060152,0.26161496613739565
9.052485499996692,-1.1727777975797653,0.30293576449155807,-0.12549878954887392,1.217755224206557
9.062473500147462,-0.06251141309738159,0.29277118407189845,0.0008007761836051941,0.2993714819965141
9.07246149983257,-0.7362714546918869,0.316377672739327,-0.006897667944431305,0.8013975696401453
9.082449833396822,-0.09072364389896394,0.448417194262147,-0.09987073570489884,0.4682765459880303
9.092437833547592,-0.5873107123374939,-0.10297688629478216,0.014768604934215546,0.5964530355602576
9.1024258332327,0.6559260338544846,-0.12283114358782769,0.0721166342496872,0.6712132750912121
9.11241383338347,-0.00971514880657196,-0.18712698072195055,0.14059103786945343,0.23425783009252257
9.12240183353424,0.43893059849739074,0.20091427668929102,0.43940948545932773,0.652768958197684
9.13238983321935,-0.07226807713508607,0.14279763087630273,0.4786472260951996,0.5046949627302779
9.142378833144903,0.46744629979133606,0.005407212674617768,0.697128438949585,0.8393588872048746
9.152366833295673,0.7849781763553619,0.05953276835381985,0.684232112467289,1.0430285094826066
9.162354833446443,1.1435066360235215,0.03171021793037653,0.6810412868857384,1.3313264809933005
9.172342833131552,0.9113903009891511,0.5606985720992088,0.7387395644187927,1.3002889346329356
9.182330833282322,1.182461371421814,0.5032623960077763,0.8087892079353333,1.5184294244425418
9.192318833433092,0.8271213984489442,0.3944636929035187,0.6142160904407502,1.1031739747417624
9.202306833583862,0.7997429805994034,0.7840557049959899,0.5956351009011269,1.2685083196338416
9.21229483326897,1.467196215391159,0.6407200571894646,0.2870523878931999,1.6265257451200088
9.222283833194524,0.566595196723938,0.5708939234912396,0.3171465450525284,0.864599282829112
9.232271833345294,1.199997171163559,0.1427471986413002,0.3383310073614121,1.2549254336663478
9.242259833496064,1.1169819116592408,-0.10968265593051911,0.6263607573509217,1.2853041174504674
9.252247833181173,1.382846036553383,0.136490422077477,0.6384343805909157,1.5292126256511205
9.262235833331943,1.2754227447509767,0.3150452384725213,0.2854841646552086,1.344417304404107
9.272223833482713,0.5793275088071823,0.30175638109445574,0.14119330108165742,0.6682909727523587
9.282211833167821,0.3852952587604523,-0.17528797701001167,-0.6022368997335434,0.7361165632616999
9.292199833318591,0.7035364025831223,-0.41877933919429783,-0.37398966729640964,0.900115479224801
9.302187833469361,0.41015235722064974,0.11011491134762764,-0.8140242201089859,0.9181425165837785
9.31217583315447,1.509741725921631,-0.1637049351632595,-0.19941812038421633,1.5316288621997192
9.322164833545685,-0.7445651453733445,0.853424805700779,-0.6532825076580048,1.3074743551986683
9.332152833230793,0.4470120352506638,-0.4001603427529335,-0.21287373304367066,0.6366029263135962
9.342140833381563,-0.22935177147388458,0.29447221219539643,-0.35820043087005615,0.5173235617183441
9.352128833532333,-0.5486074072122574,-0.3285491272062063,-0.22843229681253435,0.6790404483262874
9.362116833217442,-0.06844692170619965,0.08016068536788226,-0.18350930839776994,0.211627934919592
9.372104833368212,-1.1618405807018282,0.2457429787516594,-0.3747135525941849,1.2452603715966613
9.382092833518982,-0.8650055086612702,-0.3838623985648155,-0.4089221030473709,1.0309229638566408
9.39208083320409,-0.7811090737581253,-0.1450013002753258,-0.6870373141765594,1.0503223473104588
9.40206883335486,-0.7958604294061661,-0.3242728391289711,-0.6718368923664093,1.0908306501175538
9.412057833280414,-0.8084395444393159,-0.23464174747467043,-0.504327027797699,0.9813139139126056
9.422045833431184,-1.0219149559736251,-0.011380691640079023,-0.2972908625006676,1.0643409013615768
9.432033833581954,-1.3206053495407106,-0.15918598763644695,-0.09354931086301804,1.333450464568624
9.442021833267063,-0.5119833719730378,0.07803196996450425,-0.15139552295207978,0.5395707237085394
9.452009833417833,-1.2951132434606554,-0.04426678463816643,0.2066645747423172,1.3122454450531742
9.461997833568603,-0.6628146386146546,0.15659574419260025,-0.17699580252170563,0.7036852892958699
9.471985833253711,-0.8862712472677231,-0.6121648871898652,0.27599150240421294,1.1119324989589074
9.481973833404481,-0.5644293880462646,-0.45204133506864314,-0.23650613218545916,0.76082655925135
9.491961833555251,-0.5370217341184617,-0.5281353550404311,-0.17549219101667404,0.7733801169328798
9.501950833480805,-0.48931605577468873,0.0831829284131527,-0.06579403996467591,0.5006779980318282
9.511938833165914,-0.7444908857345581,0.242049877345562,0.06742424368858338,0.7857485925547726
9.521926833316684,-0.4910339677333832,0.1371221771836281,0.2720645123720169,0.5778719130013076
9.531914833467454,-0.3251776957511902,-0.2112918784841895,0.4593189623951912,0.6011311844707661
9.541902833152562,0.26438068628311157,-0.004358514547348023,0.14886835634708406,0.3034434567593622
9.551890833303332,-0.03679594337940216,-0.06032974384725094,0.1721662947535515,0.18610441287358517
9.561878833454102,-0.302709184885025,0.359613739438355,0.14020424455404282,0.49052229551526316
9.571866833139211,-0.16989494383335113,0.192150944955647,-0.16312825351953508,0.30396892058863406
9.581854833289981,0.11182682991027833,-0.11525753751397133,-0.04323723614215851,0.16630994687865067
9.591843833215535,-0.09812621891498566,0.2649676370993257,-0.27594501703977586,0.3949458899363732
9.601831833366305,0.28809465408325197,0.11778064761310816,-0.13811152607202531,0.34050786231371444
9.611819833517075,0.14189789056777954,0.36865927241742613,0.15494858354330063,0.42432739014704995
9.621807833202183,0.18308918595314028,0.0746360532939434,0.4345948880910874,0.47745670716745064
9.631795833352953,0.6570177090168,0.023527660891413688,0.49776265114545826,0.8246171703669898
9.641783833503723,0.17988023400306702,0.13814953297376634,0.2099179655313492,0.309043272534266
9.651771833188832,0.5674804651737213,0.27544891733676197,0.020821642577648163,0.6311416047254441
9.661759833339602,0.637720143198967,0.26061785683035854,-0.2121486783027649,0.720843748704371
9.671747833490372,0.3092802858352661,0.017575560808181765,-0.02537223815917969,0.31081657937322477
9.681736833415926,0.6555845564603806,0.043287522196769714,-0.16084871649742127,0.676414983457757
9.691724833566695,1.199065124988556,-0.039091487154364585,0.09648285895586015,1.203575614743028
9.701712833251804,0.19451464533805848,0.18857460513710977,0.38131564378738403,0.4677584303362096
9.711700833402574,0.5528214955329895,0.2064894871786237,0.30302639633417133,0.6633811205588357
9.721688833553344,0.3193497759103775,-0.11649495452642442,0.47612707614898686,0.5850233725641268
9.731676833238453,0.6090711253881455,0.17467160739004614,-0.16543439537286758,0.6548636082286071
9.741664833389223,0.8153930532932282,-0.22833961844444275,0.16262217700481416,0.8622359219865477
9.751652833539993,0.2702027589082718,0.2396382297948003,-0.13095979660749435,0.3841698588232859
9.761640833225101,0.280266986489296,-0.09569140177220106,0.08935101002454758,0.3093380530767704
9.771629833150655,0.8076320439577103,-0.15115023225545884,0.2753044545650482,0.8665497411236972
9.781617833301425,0.31259682655334475,0.14652976244688035,-0.1357653307914734,0.3709716596977177
9.791605833452195,0.3944005429744721,0.18317338585853576,0.07206225514411926,0.4407916131256295
9.801593833137304,0.10029553592205048,0.1258395725861192,-0.23894909888505936,0.2880823917085707
9.811581833288074,-0.19516485571861267,0.042237581536173824,0.03223248392343521,0.2022678106411555
9.821569833438843,-0.22347941279411318,-0.024730798602104188,-0.10663391768932343,0.24884825244327693
9.831557833123952,0.308784441947937,-0.1924378239735961,-0.10505136877298356,0.3787029677278342
9.841545833274722,-0.32470407128334045,-0.1739768485352397,0.12080142885446549,0.3876772664827161
9.851533833425492,-0.36067438781261446,-0.33390729635953903,-0.2011851489543915,0.5310890327863511
9.861522833351046,-0.1834072744846344,-0.3700141453742981,0.024724366664886477,0.41371486608283004
9.871510833501816,-0.6194335609674454,-0.051824274323880676,-0.5992293843626977,0.8633999924401808
9.881498833186924,0.03757362306118012,0.07880160972476007,-0.2962988823652268,0.30889237370974304
9.891486833337694,-0.9840828859806061,0.47015692278742793,-0.3714689326286316,1.152152692325595
9.901474833488464,-0.32210206031799316,0.036637556925415996,-0.26047913163900377,0.4158622678940332
9.911462833173573,-0.7387477505207062,-0.4137162351608277,-0.008349239230155946,0.8467461673552323
9.921450833324343,-0.25941815435886384,-0.34209844149649143,0.059376428425312044,0.4334220607419907
9.931438833475113,-0.696741937994957,-0.42396432112902405,0.03766220837831497,0.8164640320867137
9.941426833160222,-0.34316314637660983,-0.006822092682123184,-0.1506991195678711,0.3748569201951453
9.951415833551437,-0.6649196362495423,-0.13294565722346308,-0.20213882982730866,0.7075682136506387
9.961403833236545,-0.32171965241432193,-0.34242245033383373,-0.209694601893425,0.5145177307979395
9.971391833387315,-0.5183550828695298,-0.04212684988975525,-0.319175528883934,0.6101964287478664
9.981379833538085,-0.11717293918132783,-0.178175185918808,-0.06490643262863159,0.22290971165511841
9.991367833223194,-0.30768282651901246,-0.18145865332335234,0.10540571004152298,0.37243298499194577
10.001355833373964,-0.6854334229230881,-0.20756855428218843,0.4059300827980042,0.823214986566239
10.011343833524734,-0.13097763061523438,-0.32131444036960605,0.25152032017707826,0.42855639159111125
10.021331833209842,0.12377970814704896,-0.16403596065938472,0.14485395044088364,0.2514197277397814
10.031319833360612,-0.25125134825706485,0.10277709424495697,0.08765444040298462,0.28526070886960586
10.041308833286166,-0.17581115663051605,0.08483769044280053,0.027573130130767825,0.1971478481258077
10.051296833436936,0.2439657175540924,-0.3077166672796011,0.13650938898324966,0.41574467157611067
10.061284833122045,-0.20289662897586824,-0.29314511351287365,0.02060646504163742,0.3571074432544902
10.071272833272815,0.40476239383220675,-0.13679473310709,-0.031020063757896423,0.42837791588988616
10.08125983318314,0.031983684897422794,0.13687429178506136,0.08393181055784225,0.16371339796973633
10.09124783333391,0.03342502355575562,0.009574961811304093,0.3224546474218369,0.32432377609008545
10.10123583348468,0.11405754268169403,-0.04655246123671532,0.3871991121768952,0.4063242635634232
10.111223833169788,0.662690092921257,-0.01634852260351181,0.3050474864244461,0.7297118626013794
10.121211833320558,0.2529300838708878,-0.05890324249863625,0.192889119386673,0.3234956439916211
10.131200833246112,0.31348560333251957,0.2123281878232956,0.009083064794540406,0.3787333955530464
10.141188833396882,-0.06426616251468659,-0.016335512548685073,-0.08397010982036592,0.10699517726438265
10.151176833547652,0.3368832367658615,-0.1442512121424079,-0.14292963176965715,0.3933543021961337
10.16116483323276,0.04191108763217926,-0.1820891658961773,-0.22113350987434388,0.2895048061649829
10.17115283338353,0.7373204451799393,0.05886571068316698,-0.1261177173256874,0.7503414485406096
10.1811408335343,-0.24855578184127808,-0.0004733321070671082,-0.11439843535423279,0.27361871782008845
10.191128833219409,0.214313902258873,-0.10382856979966164,0.20897071659564972,0.3168273678244484
10.201116833370179,-0.17470603287220002,-0.15186052277684212,-0.010884591937065126,0.23173754689655804
10.211104833520949,0.36481830954551697,-0.20362270697951318,-0.05533161699771881,0.4214453625523664
10.221092833206058,-0.03379164397716523,0.13515458911657335,-0.2976010572910309,0.3285955378009396
10.231081833131611,-0.11582983374595643,-0.011090560108423233,-0.3010333728790283,0.3227392794440407
10.241069833282381,-0.25208516120910646,-0.28445023074746134,-0.3529198104143143,0.5186629491847097
10.251057833433151,-0.10574163258075715,-0.3856322776526213,-0.6001637694239617,0.7211727231097766
10.261045833583921,0.0615261572599411,-0.04707045145332814,-0.4178604492545128,0.4249805295285637
10.27103383326903,-0.536835207939148,0.031846494600176814,-0.5018679812550545,0.7355798463188147
10.2810218334198,-0.08602832973003388,-0.24360388454049828,0.03630448490381241,0.26088645366038266
10.29100983357057,-0.981113669872284,-0.31699565034359695,-0.07303026169538498,1.033636151975306
10.300997833255678,0.16553935289382934,-0.256688199006021,0.10394449084997177,0.3226399944884736
10.310985833406448,-0.3424737596511841,-0.23488111786544325,0.0015515586733818056,0.4152828228011053
10.320974833332002,-0.41293855547904973,0.04791150033473969,-0.22939153254032135,0.4747991550820697
10.330962833482772,-0.5408814811706544,-0.3024871368706227,-0.12682084500789642,0.6325620691869412
10.34095083316788,-0.18728397846221925,-0.43310940295457845,-0.5075997143983841,0.6930487093802495
10.35093883331865,-0.1933188897371292,-0.27509337007999424,-0.25405976593494417,0.42142012298665044
10.36092683346942,-0.07394622802734375,-0.08523734763264657,-0.1744271206855774,0.20774568708298505
10.37091483315453,-0.10604627251625062,-0.48231248013675215,0.23331296771764756,0.546174039400878
10.3809028333053,-0.8291965752840043,-0.2548083557188511,0.36647599518299107,0.9417000125582614
10.39089083345607,-0.014833216667175294,-0.47689594846218825,0.29136529415845874,0.5590559047326042
10.400878833141178,-0.09159370958805085,-0.09539849281311036,0.2908790981769562,0.31953236115196937
10.410867833532393,-0.12429543256759644,-0.039060241095721725,-0.01527088075876236,0.13118024542883794
10.420855833217502,0.0009899336099624635,-0.10668226685374976,-0.03097533255815506,0.11109256166231432
10.430843833368272,-0.32922279953956607,-0.5304434703290463,-0.05387215197086335,0.6266259934836432
10.440831833519042,0.07936718165874482,-0.2745924098789692,-0.2394452351331711,0.37287284926040354
10.45081983320415,-0.12308155059814453,-0.2595770524442196,0.04329980134963989,0.29052398704787014
10.46080783335492,0.2446206057071686,0.1278647191822529,-0.01766853153705597,0.2765877874288277
10.47079583350569,-0.04605325520038605,-0.24224268928170206,0.7094847750663758,0.7511132197451785
10.480783833190799,-0.24018023014068604,-0.15502262391149998,0.3705512121319771,0.4680029462378595
10.490771833341569,0.8445197886228561,-0.4045387378334999,0.4487574291229248,1.0383874488727856
10.500760833267123,0.08540033876895906,-0.13097306247800589,0.23250956028699876,0.2801925348426937
10.510748833417892,0.7197811371088029,0.11763516157865525,0.04512237846851349,0.7307249452536387
10.520736833568662,-0.32403105676174165,-0.14377714913338424,0.03586711317300797,0.3563066715154514
10.530724833253771,0.6751054859161377,-0.15882850348949434,-0.05334765672683716,0.6955859997965896
10.540712833404541,0.21308598697185518,-0.24825209207832816,-0.011359093487262726,0.32735877576428085
10.550700833555311,0.44888314425945286,0.09543419737368823,0.06159720093011856,0.4630312931012744
10.56068883324042,-0.01602838754653931,-0.037509742230176925,0.17970364809036254,0.18427504200651057
10.57067683339119,0.12986139714717865,-0.2735339176654816,0.363314990401268,0.47295091588104277
10.58066483354196,0.2440873396396637,0.0408420704305172,0.14488523304462433,0.2867724443593125
10.590653833467513,0.43105322957038883,-0.3244280827045441,0.2018178176879883,0.5760129331071924
10.600641833152622,0.14559976279735565,0.21018255203962327,-0.2975653892755509,0.39232786926656804
10.610629833303392,0.4092647498846054,-0.2560655070841312,0.02220772504806519,0.48328083188573945
10.620617833454162,0.10190059661865235,-0.18736635111272337,-0.3541971346735954,0.4134555494022528
10.63060583313927,0.3247631281614304,-0.35502027645707135,-0.19476490616798403,0.5190798154267575
10.64059383329004,0.10277534008026123,0.090544609464705,-0.2741931912302971,0.30650122829898024
10.65058183344081,0.23123282074928284,-0.07557829555124045,-0.22334580391645434,0.3302484584024396
10.660569833125919,-0.5795999890565873,-0.14473978355526926,0.001288726329803467,0.5974005465963146
10.670557833276689,0.15030033946037294,-0.25702762987464667,-0.05529916495084763,0.30283888819823446
10.680546833202243,-0.1181868463754654,-0.2569735796749592,0.04159007549285889,0.2858903385682038
10.690534833353013,-0.09690005779266359,0.011905844695866108,-0.10332702487707139,0.14215429788821216
10.700522833503783,-0.6070596832036972,-0.0875264960154891,-0.1869544878602028,0.6411975725212887
10.710510833188891,0.06913455426692963,-0.27377884291112425,-0.36811175376176836,0.4639404106962508
10.720498833339661,-0.350535900592804,-0.3325424831360579,-0.40649521619081497,0.6314255945720928
10.730486833490431,-0.30523342788219454,-0.04628283150494099,-0.31156157702207565,0.4386116303352117
10.74047483317554,-0.05972404539585114,0.12063558720052243,-0.43740652173757555,0.4576509278437275
10.75046283332631,-0.11939897418022156,-0.1160540744662285,0.28156214475631713,0.3271114559217996
10.76045083347708,-1.2613981980085374,-0.19084157064557075,0.07784164309501648,1.2781256747383591
10.770439833402634,0.36832663893699646,-0.3523576006293297,0.14360001504421235,0.5295671402122499
10.780427833553404,-0.6623468613624574,-0.35648376144468785,0.12680476516485215,0.7627997675661449
10.790415833238512,-0.1727325975894928,0.06215042062103748,-0.2444349566102028,0.30569212136791696
10.800403833389282,-0.39349013149738316,-0.35073127068579196,-0.10250432163476944,0.5369860740992288
10.810391833540052,-0.25131508290767673,-0.27413077220320703,-0.3814945685863495,0.532771111291241
10.82037983322516,-0.5260283839702606,-0.27002829261124134,-0.20787290185689927,0.6267633388124374
10.83036783337593,-0.18911006391048432,0.059764391183853155,-0.35724616527557373,0.40860643818949627
10.8403558335267,-0.28333618998527527,-0.0733210875838995,0.09457666665315628,0.307571332076122
10.85034383321181,-0.8482041192054749,-0.19408253610134127,-0.005704543590545654,0.8701441262654367
10.86033183336258,-0.23086912393569947,-0.4168216913938523,0.05696532905101776,0.4798811556178883
10.870320833288133,-0.3363242429494858,-0.14692203752696514,-0.02186595529317856,0.3676658829800543
10.880308833438903,-0.18080994129180908,-0.15772133320569992,-0.3395986837148667,0.4158070704052553
10.890296833124012,-0.26583021104335786,-0.2066495181620121,-0.137798992395401,0.36381078428921776
10.900284833274782,-0.5546048963069916,-0.43833440177142624,-0.37923140376806264,0.8022095090360737
10.910272833425552,0.1649739271402359,-0.2815172673761845,-0.30847161591053013,0.4490246165740578
10.920260833576322,0.002842916250228882,-0.1643429394811392,-0.0900579383969307,0.18742229376040773
10.93024883326143,-0.1907841217517853,-0.15397356033325196,0.00042216897010803226,0.24516650795110034
10.9402368334122,-0.22966986000537873,-0.06082390666007996,0.16486633837223053,0.28918627516628653
10.95022483356297,-0.22535403013229371,-0.38677021890878677,0.27682999312877654,0.5263178566487138
10.960213833488524,0.5230351942777633,-0.2421327616274357,0.3838702923059464,0.6924958411583126
10.970201833173633,0.2376717746257782,-0.21539066702127457,0.3896239525079727,0.5046660641073176
10.980189833324403,0.7540037208795548,0.5330189495533705,0.44184514313936235,1.0236493257942565
10.990177833475173,0.6030455696582795,-0.6900967966765166,0.5718193915486336,1.0802198685539521
11.000165833160281,0.6225191366672517,-0.26102599248290065,0.38984614670276646,0.779515658834137
11.010153833311051,0.6731209409236908,-0.11763369977474213,0.15303332805633546,0.7002490185131908
11.020141833461821,1.0096434044837952,-0.026923358291387558,0.5296115577220917,1.1404354753830377
11.03012983314693,0.8973347640037537,0.17535010367631912,0.5374585211277009,1.0605748438850242
11.0401178332977,0.8786558336019517,-0.6146128971129656,1.4177811035513879,1.7776074777092172
11.050106833223253,1.841990459561348,0.014989118054509164,0.9929095503687859,2.0926115028807004
11.060094833374023,1.2004099845886231,-0.504273745045066,1.3133492472767831,1.8493681046142025
11.070082833524793,1.2904074043035507,0.3465528503805399,0.772380642592907,1.5433152640470242
11.080071083270013,0.34434720754623416,0.17509377636015416,0.07298640757799149,0.3931409995867763
11.090059083420783,-0.10307471752166748,0.23304881975054742,-0.1391169548034668,0.29032684494046446
11.100047083571553,1.1581755459308625,-0.3095138821005821,-0.46253639280796055,1.2849550004093624
11.110035083256662,1.7352857905626298,-0.1562561671435833,0.07832696199417115,1.7440664774240147
11.120023083407432,0.9221778291463852,-0.399263014420867,0.4788252738118172,1.1131471358695304
11.130011083558202,1.3815117019414902,-0.21507067814469338,0.994623076915741,1.7158394576219034
11.140000083483756,-0.1457383418083191,-0.45870712436735633,0.6974643614888192,0.8474127835744597
11.149988083168864,0.6252111947536468,-0.06490811370313168,-0.19607614427804948,0.6584435857571457
11.159976083319634,1.1623048496246338,-0.4588194639980793,0.02143004536628723,1.2497708233307532
11.169964083470404,-0.182234907746315,0.17651552684605123,-0.8313778790831566,0.8692275137430101
11.179952083155513,0.8065321826934815,-0.6433898227661848,-0.4214751979708672,1.114489106390904
11.189940083306283,-0.2205838716030121,-0.1453649239987135,-0.8654759171605111,0.9048959988448141
11.199928083457053,-0.5478484386205673,-0.5221988962590695,-0.39683532357215884,0.8545805245778797
11.209916083142161,-0.8329341155290604,-0.08123748667538166,-1.0051822713017464,1.3079641312332875
11.219904083292931,0.5024828159809113,-0.3475963591039181,-0.20941919803619385,0.6458859107648416
11.229893083218485,-1.441256212592125,-0.05257143884897232,-0.2381559240818024,1.4617460349504308
11.239881083369255,-0.02905189096927643,-0.5501797965914011,0.2516048124432564,0.6056787948994521
11.249869083520025,-1.3796955567598344,0.001626476123929024,-0.2809262600541115,1.4080064056514094
11.259857083205134,-0.7221708941459656,-0.18184263266623021,-0.22964734822511673,0.7793172960697055
11.269845083355904,-0.7864019733667375,-0.7153850542008877,-0.2802973920106888,1.099440979524185
11.279833083506674,-0.8526936113834381,-0.46443556845188144,-0.6427931874990463,1.1644611947302221
11.289821083191782,-0.8089885979890824,-0.5256535774469376,-0.5369907438755036,1.1041436927171533
11.299809083342552,-0.6199247270822525,-0.059020917713642124,-0.3975983852148056,0.7388332774727914
11.309797083493322,-1.141451924443245,-0.023022973090410234,-0.2316929966211319,1.1649567364449158
11.31978508317843,-0.7333449232578277,-0.3871270452439785,0.07990395605564118,0.8330946931896185
11.329774083569646,-0.5542195647954941,-0.766583786085248,0.405209998190403,1.0290797683971669
11.339762083254755,-1.1783326524496078,-0.5909972356259823,0.1998999309539795,1.3333062494197974
11.349750083405524,-0.36732851922512055,-0.5611089004576206,0.04530773520469666,0.6721802065504895
11.359738083556294,-0.48266660213470464,-0.403646160364151,0.045007188320159916,0.6308113177436415
11.369726083241403,-0.6409939992427827,-0.22353978529572488,-0.32366911411285404,0.7520671765912371
11.379714083392173,-0.44538767874240875,-0.3469669794291258,-0.1483067312836647,0.5837389448492944
11.389702083542943,-0.06959765374660493,0.31216515585780147,-0.4445608824491501,0.547654358279677
11.399690083228052,-0.33293578147888186,-0.4042558787763119,0.22872202634811403,0.5714742474083582
11.409678083378822,-0.2702583074569702,-0.2781516831368208,0.23484318405389787,0.45338640548424647
11.419667083304375,-0.12567888379096986,-0.41812028490006925,0.3532627496123314,0.5616175965365793
11.429655083455145,-0.16538206279277803,-0.27209411390125754,0.17235340565443039,0.3620664717341079
11.439643083140254,0.2090935081243515,-0.06760762698948383,-0.06518973022699356,0.22921733637307112
11.449631083291024,-0.6529193955659867,0.023438125401735305,-0.05391015887260437,0.6555603618723986
11.459619083441794,0.26410177409648894,-0.40243052423000336,-0.3153613901138306,0.575458843261163
11.469607083126903,-0.21270942628383638,-0.4796730469912291,-0.12466936200857164,0.5393273420321586
11.479595083277673,-0.1755176264047623,-0.010313976779580116,-0.5574253007769585,0.5844961772689827
11.489583083428442,0.1308261877298355,-0.25893619760870934,-0.07917948603630066,0.3007205294570882
11.499571083579212,-0.42156729161739354,0.004136027991771698,-0.11457326710224153,0.43687884089717005
11.509560083504766,-0.006799727082252503,-0.4174152568727732,0.05959920734167099,0.42170344849705915
11.519548083189875,-0.05874989926815033,-0.5311615815013647,0.1499047753214836,0.5550275830904562
11.529536083340645,-0.24163033962249758,-0.06882457874715328,-0.3319157347083092,0.41628127343511784
11.539524083491415,0.062082227468490604,-0.43222661957144737,-0.17476333558559418,0.47033634464988255
11.549512083176523,0.10759110689163208,-0.36447040021419524,-0.3689557993412018,0.5296630068090157
11.559500083327293,-0.18046261668205263,-0.40947334930300716,-0.4506688839197159,0.6350886731336013
11.569488083478063,-0.26388484239578247,-0.1292205423116684,-0.39511565744876864,0.4923916544405899
11.579476083163172,0.3015783333778381,0.27864562667906284,-0.35569928437471393,0.5432447490174256
11.589464083313942,-0.45344748079776764,-0.18685413502156736,0.19048152834177018,0.5261295451273541
11.599453083239496,-0.4679988616704941,-0.3432246152311564,-0.04336909085512161,0.5819853512478242
11.609441083390266,-0.10477684199810029,-0.6249326480180025,0.36036770135164264,0.728960822922161
11.619429083541036,-0.0909242033958435,-0.422635797187686,-0.23378893107175827,0.4914727786147621
11.629417083226144,-0.24375989556312563,0.05877051070332528,-0.20881518065929414,0.32630758386382813
11.639405083376914,-0.5222849965095521,-0.209424899071455,-0.21551316618919375,0.6025664533733711
11.649393083527684,0.03086511254310608,-0.578947439789772,-0.3363131332397461,0.6702531736597489
11.659381083212793,-0.02694630861282349,-0.38602893814444544,0.0761798644065857,0.3943955075476791
11.669369083363563,-0.4750669759511948,-0.016485493630170822,-0.145583975315094,0.49714695715471235
11.679357083514333,0.49354242324829106,-0.3181794556975365,0.46194406986236575,0.7471376133315616
11.689345083199441,-1.175838230252266,-0.11919366382062435,0.12630131989717483,1.1885935792463014
11.699334083124995,0.10126032650470734,-0.23199770964682104,0.4215997436642647,0.4917549540807742
11.709322083275765,0.010612696409225464,-0.23186103098094465,0.00837642878293991,0.23225488492554172
11.719310083426535,0.058161084651947026,-0.15905113622546196,0.16216434001922608,0.23447227741541765
11.729298083577305,-0.6759749668836594,-0.35280783623456957,0.06068357348442078,0.7649170028524157
11.739286083262414,0.39755628526210784,-0.4723904860764742,-0.010199590623378755,0.6175012574366618
11.749274083413184,-0.343689980506897,-0.4303990723192692,0.3765115714073181,0.6671784825350161
11.759262083563954,0.29158017933368685,0.04150024764239788,0.1565711858868599,0.33355030772683
11.769250083249062,0.2011763781309128,-0.02963748961687088,0.34483661949634553,0.4003281279829454
11.779238083399832,-0.0939542305469513,-0.11842892110347748,0.6292603915929794,0.6471641578603942
11.789227083325386,0.4913555645942688,-0.4799203842133284,0.265914703309536,0.7365218906980431
11.799215083476156,0.04243558287620545,-0.4468871971964836,0.4564102649688721,0.6401712862048158
11.809203083161265,0.48423131704330447,-0.07856063134968282,0.07888683289289475,0.4968650456687666
11.819191083312035,0.2037321960926056,-0.13648936226963998,0.20242475867271426,0.317981031920452
11.829179083462805,0.17927680134773255,-0.3710633551329374,0.21516964226961138,0.46489370825858606
11.839167083147913,0.5689399302005768,-0.470221461430192,0.31695738762617115,0.8032825483831885
11.849155083298683,0.4619809073209763,-0.09786894142627717,0.34695331156253817,0.5859874476720677
11.859143083449453,0.4498871111869812,-0.17318400263786315,0.3764870131015778,0.6116645997734266
11.869131083134562,0.6104943376779557,-0.12587301135063172,0.3137007808685303,0.6978219910842934
11.879120083525777,0.05159700036048889,-0.5360974355041981,0.3948829382658005,0.6678287547970738
11.889108083210886,0.6576275736093522,-0.3838619600236416,0.20833804786205293,0.7894483973709028
11.899096083361655,0.8092441213130951,-0.32363549262285235,0.3104105526208878,0.9251868412074638
11.909084083512425,0.13582263350486756,-0.06132128544151783,0.20148247987031936,0.2506058209920339
11.919072083197534,0.22467750728130342,-0.2908470846712589,0.03210004448890686,0.36892061720118113
11.929060083348304,0.3808390957117081,-0.13516833007335663,-0.06119695901870728,0.40872235327966683
11.939048083499074,0.5780949157476426,-0.19135451763868333,0.01591845989227295,0.6091499654431157
11.949036083184183,0.43767110824584965,0.0696463318169117,-0.15981025099754334,0.4711113741490428
11.959024083334953,0.6007786041498184,-0.377737147808075,0.5403452914953232,0.8919603792094968
11.969013083260506,-0.1503938949108124,-0.41066727764904504,0.16928537160158158,0.4689599914666579
11.979001083411276,0.6921279001235963,-0.45675861284136776,0.33399529695510866,0.8939923483578596
11.988989083562046,-0.09309001207351685,-0.18402598299086095,0.2038728216290474,0.28999213810479335
11.998977083247155,0.1885311895608902,0.05059142544865609,-0.15571720004081727,0.24970251931993626
12.008965083397925,-0.14824328899383546,-0.2029218450933695,-0.2202327463030815,0.3341493834978672
12.018953083548695,0.019184129834175112,-0.5091677914559841,-0.3217319315671921,0.6026037723775178
12.028941083233804,-0.15920681834220887,-0.11752296812832357,-0.41315110176801684,0.4580963784363136
12.038929083384573,0.2750775825977326,0.012722883448004723,-0.08167186170816422,0.2872278559017586
12.048917083535343,-0.5055584514141083,0.1940698914974928,0.0584607544541359,0.5446743342525208
12.058906083460897,0.04884997844696045,-0.1463746650516987,0.22346771836280824,0.27156893068527715
12.068894083146006,-0.41663048744201664,-0.1591725390404463,0.062418150007724764,0.4503475165926216
12.07888195849955,-0.08579911887645722,-0.23519102029502392,0.030956036746501926,0.25225895630966516
12.08886995818466,-0.48989083707332615,-0.03840451240539551,-0.44745466947555546,0.6645928227546389
12.09885795833543,-0.19845566868782044,-0.16479631796479227,-0.1752340364456177,0.3118484349457392
12.1088459584862,-0.8840838038921357,-0.38681392684578897,-0.4464466094970703,1.0632703143780875
12.118833958171308,0.39656518220901493,-0.47314302273094655,-0.1946418222784996,0.6473126776754348
12.128821958322078,-0.8221524345874787,0.07143207147717476,-0.18515617668628692,0.8457659110526518
12.138809958472848,-0.4602951550483704,-0.30037870399653915,0.064088114798069,0.5533590895919343
12.148798958398402,-0.6703306496143342,0.0461104117333889,0.003778470754623413,0.6719253133524897
12.158786958549172,-0.3154648858308792,-0.3908531834185124,0.435732171535492,0.6649412233361008
12.16877495823428,-0.002583884596824646,-0.18902579091489316,-0.14855114489793778,0.24042643103681158
12.17876295838505,-0.3678202700614929,-0.08821109533309937,0.03182347118854523,0.3795861980189255
12.18875095853582,-0.7235976147651673,0.052067116498947144,-0.20021158754825594,0.7525883154174979
12.198738958220929,0.24898496747016907,-0.5864663743972779,-0.10962710738182069,0.6464939481524282
12.208726958371699,-0.9524260604381561,-0.41053037971258166,-0.22289819955825807,1.0608177037714894
12.218714958522469,-0.09357708513736725,0.15343269288539887,-0.5061975520849228,0.5371538176776176
12.228702958207577,-0.10278060257434846,-0.24374710477888586,0.14456685215234757,0.3014565940477568
12.238690958358347,-0.020269373059272768,0.018103491291403772,0.0881324502825737,0.09222750497527422
12.248679958283901,-0.6085361051559448,-0.5506390953809023,0.4587114366889,0.9401785930287182
12.258667958434671,0.08127688229084015,-0.37226035326719287,0.1683179497718811,0.4165508785550018
