"Time (s)","Linear Acceleration x (m/s^2)","Linear Acceleration y (m/s^2)","Linear Acceleration z (m/s^2)","Absolute acceleration (m/s^2)"
5.900624994E-3,1.587151406E-1,-1.441990257E-1,6.959513944E-1,7.282391079E-1
1.586962500E-2,2.888225411E-1,-1.382358890E-1,6.264350170E-1,7.035257293E-1
2.583962498E-2,4.479508423E-1,-1.525173570E-1,1.694055319E-1,5.026129082E-1
3.580962500E-2,1.874973287E-1,-2.395001990E-1,-2.847606302E0,2.863804680E0
4.577962498E-2,-2.227741290E-1,1.573040978E-1,-1.551710701E0,1.575493253E0
5.574862499E-2,-3.101512286E-1,4.866184428E-1,1.251193053E0,1.377851715E0
6.571862500E-2,-1.505549492E-1,6.137385100E-2,5.372854435E-1,5.613458739E-1
7.568862499E-2,-1.228475889E-1,-2.669398664E-1,-1.089101218E0,1.128046934E0
8.565862500E-2,-1.892481313E-1,-1.510030377E-1,1.563416827E-1,2.882004413E-1
9.562862499E-2,-1.582700578E-2,-5.258221965E-2,4.815737575E-1,4.846944067E-1
1.055976250E-1,5.202297002E-2,-7.029172738E-2,1.188341331E-1,1.475427652E-1
1.155676250E-1,7.574638473E-2,4.072692140E-2,5.346237910E-1,5.414968096E-1
1.255376250E-1,1.693673240E-1,-1.841732917E-2,-1.299075902E-1,2.142439507E-1
1.355076250E-1,1.678305295E-1,-5.938206551E-2,-9.162750649E-1,9.334095087E-1
1.454766250E-1,7.040997818E-2,1.592774600E-1,4.181414080E-1,4.529559707E-1
1.554466250E-1,2.953923812E-2,1.291469953E-1,2.236244237E-1,2.599219034E-1
1.654166250E-1,-6.300283503E-3,-1.313650543E-1,-5.175493366E-1,5.339979277E-1
1.753866250E-1,-6.680582754E-2,-8.319016434E-2,9.680884123E-2,1.440679485E-1
1.853571250E-1,-3.221395556E-2,2.253409561E-2,4.046472037E-1,4.065524368E-1
1.953261250E-1,-3.371358365E-2,-2.385341476E-2,1.807941538E-1,1.854511180E-1
2.052961250E-1,-4.637901820E-2,-7.453456299E-2,-4.563564706E-1,4.647231893E-1
2.152661250E-1,-6.002943451E-2,-1.975793812E-2,-8.568919122E-2,1.064732202E-1
2.252361250E-1,1.742380729E-2,3.460811171E-2,3.542085367E-1,3.563214812E-1
2.352051250E-1,1.020487687E-1,-6.255157159E-3,-1.468107212E-1,1.789035104E-1
2.451751250E-1,2.154181855E-2,-2.177860109E-2,-1.747808772E-1,1.774449561E-1
2.551451250E-1,5.397199318E-3,-2.496679999E-2,1.947818631E-1,1.964495993E-1
2.651151250E-1,6.089345198E-3,-2.421807545E-2,1.320137572E-1,1.343548563E-1
2.750851250E-1,1.589055771E-2,-1.328642713E-5,-1.557019973E-1,1.565107727E-1
2.850541250E-1,-4.906298155E-2,-3.497248233E-3,-1.096914268E-1,1.202148743E-1
2.950241250E-1,-8.606059905E-3,-1.559946459E-2,6.303590834E-2,6.550521584E-2
3.049941250E-1,-3.834620470E-2,1.367126071E-2,2.255809021E-1,2.292249510E-1
3.149641250E-1,9.492369890E-3,-3.439117544E-2,-2.428950924E-1,2.455012911E-1
3.249331250E-1,2.128094137E-2,1.542155163E-3,-5.429432094E-2,5.833635226E-2
3.349031250E-1,-3.083119869E-2,-1.384255444E-2,3.300852638E-1,3.318108807E-1
3.448731250E-1,3.525103591E-2,-5.556672075E-2,-2.445644724E-1,2.532628618E-1
3.548431250E-1,3.357902460E-2,-2.315074846E-2,-4.471482754E-2,6.052209389E-2
3.648131250E-1,9.762944313E-2,7.108974441E-2,2.456584865E-1,2.737395695E-1
3.747821250E-1,1.111840382E-1,-2.122851514E-2,-1.617860252E-1,1.974519135E-1
3.847521250E-1,3.601607099E-2,-1.852577675E-2,4.119772732E-2,5.777209110E-2
3.947221250E-1,7.787120808E-3,3.356501412E-2,3.320692241E-2,4.785341283E-2
4.046921250E-1,-2.361567976E-2,-1.391240354E-2,-1.260326403E-1,1.289786096E-1
4.146611250E-1,-1.219820182E-1,-3.235308275E-2,3.995753288E-2,1.323742391E-1
4.246311250E-1,-3.318495881E-2,-6.037622921E-2,-2.545585334E-2,7.344747112E-2
4.346011250E-1,-3.255201599E-2,-3.348006047E-2,1.706287694E-1,1.769031519E-1
4.445711250E-1,5.472703317E-2,-1.921236321E-3,-6.872466445E-2,8.787388015E-2
4.545401250E-1,5.498142360E-2,2.659442500E-2,4.745366335E-2,7.734384621E-2
4.645101250E-1,2.259093694E-2,1.329641079E-2,-9.997686267E-2,1.033562675E-1
4.744801250E-1,4.522437584E-3,3.026405075E-2,1.148223585E-1,1.188298751E-1
4.844501250E-1,5.140967019E-2,3.612715438E-2,-8.561785519E-2,1.062004831E-1
4.944201250E-1,4.903670562E-2,6.284615706E-2,1.222524154E-1,1.459448219E-1
5.043891250E-1,1.593322411E-2,6.913898536E-2,-1.224868888E-1,1.415524809E-1
5.143591250E-1,-1.047972707E-2,-1.593292490E-2,-2.794489610E-1,2.800989193E-1
5.243291250E-1,1.048871716E-2,1.567584727E-2,2.501368690E-1,2.508469625E-1
5.342991250E-1,-3.878622595E-3,5.042320151E-3,1.836341465E-1,1.837443018E-1
5.442681250E-1,5.136506690E-2,-4.491604028E-2,-2.073188782E-1,2.182588784E-1
5.542381250E-1,4.189641478E-2,-1.827231480E-2,6.136068106E-3,4.611765812E-2
5.642081250E-1,-2.789253429E-2,3.923631309E-3,1.760193175E-1,1.782587683E-1
5.741781250E-1,1.539010914E-2,-4.764747571E-3,-9.253569603E-2,9.392770261E-2
5.841481250E-1,-1.183339404E-2,2.030184566E-2,-8.145229876E-2,8.477423621E-2
5.941171250E-1,-1.923061520E-2,-1.546028601E-2,3.580834866E-3,2.493309814E-2
6.040871250E-1,-9.709539134E-3,-8.262464037E-3,4.370033562E-2,4.552211326E-2
6.140571250E-1,3.194114640E-2,-5.098708552E-2,-7.874679208E-2,9.910084251E-2
6.240271250E-1,-4.491679402E-2,-5.786617942E-2,2.147717392E-1,2.269204995E-1
6.339961250E-1,3.725188002E-3,-2.740139558E-2,-1.130512369E-1,1.163842587E-1
6.439661250E-1,8.278012834E-3,-1.582714055E-2,-1.516311657E-1,1.526795150E-1
6.539361250E-1,-2.514856389E-2,-4.084945254E-2,1.330703491E-1,1.414526276E-1
6.639061250E-1,-6.424902286E-3,-3.305638859E-2,4.190348625E-2,5.375784925E-2
6.738751250E-1,2.940886348E-2,-6.345585720E-2,-8.668848038E-2,1.113841088E-1
6.838451250E-1,3.839866519E-3,2.664041472E-2,1.665339643E-1,1.686950430E-1
6.938151250E-1,9.322718410E-2,1.032472287E-1,-5.513690472E-2,1.496374831E-1
7.037851250E-1,-3.931210991E-3,-3.054290812E-2,-2.824801576E-1,2.841537667E-1
7.137551250E-1,1.290729001E-2,1.068732424E-1,2.539743966E-1,2.758468455E-1
7.237241250E-1,-1.031358940E-1,-9.456287088E-2,-8.563071907E-2,1.640480699E-1
7.336941250E-1,7.508537527E-3,-3.835841990E-2,5.512754917E-3,3.947324385E-2
7.436641250E-1,3.243993217E-2,3.930957916E-2,1.641518086E-1,1.718819609E-1
7.536341250E-1,8.491633549E-2,4.653671944E-2,-1.487356246E-2,9.796771483E-2
7.636031250E-1,4.500991093E-2,4.254724642E-2,-8.984539211E-2,1.091254083E-1
7.735731250E-1,6.053585820E-2,1.379962263E-1,2.326981330E-1,2.772290924E-1
7.835431250E-1,2.276131019E-2,2.548618029E-1,2.063692904E-1,3.287261776E-1
7.935131250E-1,-1.324451721E-1,5.787892726E-1,8.157538265E-1,1.008956417E0
8.034821250E-1,-2.384274724E-1,6.165391892E-1,1.436327595E-1,6.764603470E-1
8.134521250E-1,-9.184565149E-2,6.350564441E-1,-1.402021396E0,1.541880769E0
8.234221250E-1,-1.990726961E-1,9.278152028E-1,-1.384877944E-1,9.589837632E-1
8.333921250E-1,1.061253561E-1,9.093032835E-1,-1.867436957E-1,9.343277051E-1
8.433621250E-1,1.027398548E-1,6.911158933E-1,-5.790485966E-1,9.074656649E-1
8.533311250E-1,4.426431784E-2,4.994630215E-1,4.152014279E-1,6.510106492E-1
8.633011250E-1,6.887996284E-2,3.807400585E-1,3.672045583E-1,5.334291228E-1
8.732711250E-1,6.865541149E-2,3.275729346E-1,2.543421865E-1,4.203659605E-1
8.832411250E-1,1.296669590E-1,4.022327422E-1,3.368434757E-1,5.404333689E-1
8.932101250E-1,-3.775514256E-2,3.234371624E-1,-7.204997599E-1,7.906686745E-1
9.031801250E-1,-3.894857755E-2,3.164153142E-1,-7.544042552E-1,8.190002582E-1
9.131501250E-1,-3.623028008E-2,1.271686173E-1,1.412722385E-1,1.935002217E-1
9.231201250E-1,1.045903889E-1,-1.625203624E-1,2.449041957E-1,3.119776958E-1
9.330891250E-1,1.625864359E-1,-2.437264751E-1,1.055358106E-1,3.114076928E-1
9.430591250E-1,1.093911174E-1,-2.014059727E-1,4.541023690E-1,5.086646674E-1
9.530291250E-1,6.098163530E-2,-1.083087521E-1,3.852075505E-1,4.047646262E-1
9.629991250E-1,-1.550681591E-2,4.529827459E-2,3.627893257E-1,3.659350897E-1
9.729691250E-1,8.715064796E-2,3.730904797E-2,4.286026615E-1,4.389617773E-1
9.829381250E-1,-1.278149265E-1,4.924087852E-2,5.284637493E-1,5.459260516E-1
9.929081250E-1,2.999420632E-3,1.234952502E-1,-5.795485336E-1,5.925677819E-1
1.002878125E0,-1.400598366E-1,1.554131814E-1,-1.870247129E0,1.881912415E0
1.012848125E0,-9.288336782E-2,2.042028056E-1,3.108081633E-1,3.833116489E-1
1.022817125E0,1.401719752E-1,9.555871566E-2,6.426282960E-1,6.646433462E-1
1.032787125E0,3.134267292E-1,-1.227317592E-1,9.416122198E-2,3.495221524E-1
1.042757125E0,1.993935986E-1,-1.313130415E-1,-4.286231267E-1,4.906309273E-1
1.052727125E0,-9.022124017E-2,-7.960686268E-2,8.865057206E-1,8.946337337E-1
1.062696125E0,2.927228166E-1,2.376556948E-1,7.779977703E-1,8.645504076E-1
1.072666125E0,1.720742742E-1,4.346763106E-1,-1.611820078E-1,4.945024676E-1
1.082636125E0,-1.595395432E-2,5.092244364E-1,8.422978467E-1,9.843930708E-1
1.092606125E0,-1.332573869E-1,3.072415810E-1,-2.272185903E0,2.296733266E0
1.102576125E0,-2.994856880E-1,3.693300211E-1,-1.135046300E0,1.230620349E0
1.112545125E0,-3.564350834E-1,6.139143741E-1,1.143879104E0,1.346252662E0
1.122515125E0,-4.974080175E-3,2.433107380E-1,4.806721169E-1,5.387676129E-1
1.132485125E0,1.339471848E-1,5.196497295E-2,-1.096577468E0,1.105949524E0
1.142455125E0,1.424449341E-1,8.483154173E-2,2.149775612E-1,2.714816781E-1
1.152424125E0,2.364067478E-1,6.572521641E-3,4.577767593E-1,5.152581001E-1
1.162394125E0,6.791820550E-2,4.194319250E-2,2.300183541E-1,2.434759890E-1
1.172364125E0,-2.342229224E-1,1.416412800E-1,4.428558344E-1,5.206187853E-1
1.182334042E0,4.273074850E-2,2.143163325E-1,3.872470593E-1,4.446545763E-1
1.192303042E0,2.593702437E-2,2.486680118E-1,3.713508189E-2,2.527598142E-1
1.202273042E0,-2.933653160E-2,2.317900969E-1,-1.031989124E0,1.058106248E0
1.212243042E0,-8.558306426E-2,4.811593361E-1,-4.032707691E-2,4.903723491E-1
1.222213042E0,5.426709484E-2,5.613851814E-1,-4.153020000E-1,7.004098734E-1
1.232182042E0,-1.745531647E-1,3.000373362E-1,-8.962202847E-2,3.585014902E-1
1.242152042E0,5.140797998E-2,7.872168560E-2,2.396434557E-1,2.574274074E-1
1.252122042E0,2.438023427E-1,1.606692435E-2,-9.435418010E-2,2.619168564E-1
1.262092042E0,-2.617853631E-1,1.836464256E-1,9.966579080E-1,1.046701759E0
1.272062042E0,2.246127676E-1,-9.369619475E-3,-3.500821567E-1,4.160483164E-1
1.282031042E0,-1.595064699E-1,3.797476946E-2,-1.331048477E-1,2.111901928E-1
1.292001042E0,-2.616839139E-1,2.880381371E-2,5.191064501E-1,5.820477961E-1
1.301971042E0,3.061791785E-1,2.776203540E-1,-5.862441802E-1,7.172872431E-1
1.311941042E0,-5.013562403E-1,3.097751430E-1,6.499180198E-3,5.893733606E-1
1.321910042E0,-5.315042283E-1,-6.248160143E-2,-3.356453812E-1,6.317107860E-1
1.331880042E0,9.363968689E-2,-1.629442307E-1,-6.090307796E-1,6.373677932E-1
1.341850042E0,-1.346621257E-1,1.016840761E-1,3.194690591E-1,3.612949199E-1
1.351820042E0,2.106336282E-1,-9.341475181E-4,6.220946288E-1,6.567869709E-1
1.361789042E0,9.074997464E-2,1.332702965E-1,4.409934962E-1,4.695442402E-1
1.371759042E0,4.934302298E-1,5.083952555E-2,4.072819591E-1,6.418229064E-1
1.381729042E0,4.950649286E-1,1.676339717E-1,-1.898889130E-1,5.561009182E-1
1.391699042E0,6.179273548E-2,1.119989573E-1,1.838352907E-1,2.239587522E-1
1.401668042E0,-2.067185701E-1,2.404523541E-2,-1.017597957E0,1.038660841E0
1.411638042E0,-2.155820172E-1,-7.287398115E-2,-2.488159829E-1,3.371878061E-1
1.421608042E0,-6.489307540E-2,1.615491581E-1,3.574502331E-1,3.975926444E-1
1.431578042E0,3.580542505E-1,1.659887480E-1,1.221633623E0,1.283800538E0
1.441547042E0,3.927426381E-1,-1.431212469E-2,-1.559850025E0,1.608596816E0
1.451517042E0,-1.623017861E-1,1.727359963E-1,5.935608011E-1,6.391353682E-1
1.461487042E0,-3.187761275E-1,-8.087279401E-2,1.209894168E-1,3.504241248E-1
1.471457042E0,-2.612462681E-1,-2.107087101E-2,-5.718968672E-1,6.290942861E-1
1.481427042E0,6.939026032E-2,7.629419118E-2,-1.260677236E-1,1.628768945E-1
1.491396042E0,-4.741141722E-3,2.475488867E-2,-1.317272437E-1,1.341169253E-1
1.501366042E0,1.150694947E-1,-2.274071337E-1,-3.030880845E-1,3.960017425E-1
1.511336042E0,8.677487299E-3,-4.578365470E-1,6.625380653E-1,8.053858023E-1
1.521306042E0,2.303688764E-1,-4.011682200E-1,-1.265992355E-1,4.796176877E-1
1.531275042E0,-5.428608002E-2,1.055387707E-1,5.036364716E-1,5.174312574E-1
1.541245042E0,-3.137873197E-1,1.941226078E-1,2.839068782E-1,4.655632979E-1
1.551215042E0,-4.312173171E-1,-3.668561007E-1,-1.320654466E0,1.436892478E0
1.561185042E0,2.297283870E-1,-4.696996705E-1,-3.788691688E-1,6.457048546E-1
1.571154042E0,-1.310154731E-1,-3.287292945E-1,-4.406894410E-1,5.651859753E-1
1.581124042E0,-3.316156995E-3,-2.436472270E-1,4.443661702E-1,5.067901551E-1
1.591094042E0,1.506477554E-1,-4.510605195E-2,1.638355327E0,1.645885014E0
1.601064042E0,4.663920834E-1,-4.358551092E-1,-1.094222794E0,1.266812841E0
1.611033042E0,1.199823801E-1,-2.376781152E-1,9.882882035E-1,1.023523439E0
1.621003042E0,-1.415275791E-1,1.248836076E-1,2.647648484E0,2.654367809E0
1.630973042E0,-9.583096750E-2,-2.564816461E-1,-2.125419620E0,2.142982728E0
1.640943042E0,-4.953168339E-1,-1.550835811E-1,9.346750832E-1,1.069115145E0
1.650913042E0,4.223712472E-2,3.230084518E-1,-6.207585400E-1,7.010417960E-1
1.660882042E0,-3.561067257E-1,5.917162970E-2,-2.607581023E0,2.632449823E0
1.670852042E0,-4.717148403E-1,3.040508651E-1,-1.502787048E-1,5.809866678E-1
1.680822042E0,-9.560413208E-2,3.671685750E-2,1.681633494E0,1.684749087E0
1.690792042E0,2.794409759E-1,-2.909152778E-1,-3.793498099E-2,4.051641898E-1
1.700761042E0,1.567686025E-1,-2.259783300E-1,-3.023484117E-1,4.087262683E-1
1.710731042E0,3.734911191E-1,1.065480458E-1,5.979292560E-1,7.129989462E-1
1.720701042E0,2.710250967E-1,3.000046284E-1,6.316396236E-1,7.499506612E-1
1.730671042E0,1.595716846E-1,2.864423040E-1,2.136970210E-1,3.913805474E-1
1.740640042E0,1.131078452E-1,-1.371568585E-1,7.975719094E-2,1.948501937E-1
1.750610042E0,2.798249004E-1,-2.755322219E-1,-1.892291717E0,1.932611684E0
1.760580042E0,3.508963449E-2,-2.836845881E-2,3.271055228E-1,3.302030813E-1
1.770550042E0,1.667678712E-1,9.253482808E-2,8.105895656E-1,8.327242408E-1
1.780519042E0,1.553319964E-1,2.095166273E-1,4.718697184E-1,5.391532967E-1
1.790489042E0,-1.070562328E-1,2.307366114E-1,3.222575963E-2,2.563960226E-1
1.800459042E0,-1.733954343E-1,2.502810394E-1,4.810352290E-1,5.692991014E-1
1.810429042E0,-9.033359807E-2,1.395249625E-1,-9.584042537E-1,9.727106906E-1
1.820398042E0,-1.561991385E-1,2.127654316E-1,-1.123319709E0,1.153912678E0
1.830368042E0,-8.341472483E-2,3.844544657E-1,6.600179154E-1,7.683663847E-1
1.840338042E0,-1.297821217E-1,2.003514456E-1,2.600783050E-2,2.401260255E-1
1.850308042E0,-2.716106040E-1,5.694118645E-2,-4.820918208E-1,5.562617573E-1
1.860277042E0,1.665705459E-2,1.951322027E-1,4.006763595E-1,4.459771060E-1
1.870247042E0,-5.979002757E-2,2.899247960E-1,1.558867693E-1,3.345622806E-1
1.880217042E0,4.192336679E-2,8.474221637E-2,-5.770582044E-1,5.847520699E-1
1.890187042E0,1.387993779E-1,1.761849033E-1,-1.321944362E-1,2.603492970E-1
1.900157042E0,8.632235331E-2,1.190148395E-1,9.013582331E-1,9.132703571E-1
1.910126042E0,9.808360733E-2,6.737235879E-2,2.326267970E-1,2.612941932E-1
1.920096042E0,4.175313972E-2,-7.795832246E-3,-1.210525668E0,1.211270610E0
1.930066042E0,1.946171361E-1,-6.317356459E-2,-1.317617422E-1,2.433677991E-1
1.940036042E0,-3.708908988E-2,1.136168362E-2,8.004504937E-1,8.013898435E-1
1.950005042E0,-8.865703689E-2,4.461210840E-2,3.417340869E-1,3.558546003E-1
1.959975042E0,-1.625954077E-1,3.222438462E-2,2.932144761E-2,1.683312950E-1
1.969945042E0,-4.336505628E-1,-2.076742610E-1,2.259212101E-1,5.312455199E-1
1.979915042E0,-3.951614119E-2,-2.574495613E-1,-1.015241529E0,1.048120777E0
1.989884042E0,4.390855132E-2,-7.418595473E-2,-6.948731679E-1,7.002001401E-1
1.999854042E0,5.899155373E-2,7.432665336E-2,5.974562162E-1,6.049449439E-1
2.009824042E0,3.736420503E-1,8.946320347E-2,1.468580836E0,1.518005836E0
2.019794042E0,1.471216469E-1,-5.401331198E-3,7.230199099E-2,1.640168627E-1
2.029763042E0,-3.179764111E-1,-1.786497606E-1,-6.804276216E-1,7.720145615E-1
2.039733042E0,-8.940474959E-2,-2.375629068E-1,-1.243999223E0,1.269631211E0
2.049703042E0,-3.385221748E-2,-5.852917601E-2,8.940047747E-1,8.965579592E-1
2.059673042E0,9.866588037E-2,1.187368775E-1,4.195850855E-1,4.470850546E-1
2.069642042E0,1.229095694E-2,6.473720599E-2,-1.430872142E-2,6.742931833E-2
2.079612042E0,2.922701325E-1,8.624447571E-2,4.206171191E-1,5.194022534E-1
2.089582042E0,1.599402785E-1,-1.076800028E-1,-9.447890121E-1,9.642624918E-1
2.099552042E0,-2.487689311E-1,9.380547373E-2,1.331896323E-1,2.973632898E-1
2.109521042E0,-2.976380409E-1,3.021430282E-1,1.248439014E-1,4.421140267E-1
2.119491042E0,-2.180018691E-1,-1.607933689E-1,-1.438179992E0,1.463468829E0
2.129461042E0,-3.024079619E-1,-1.555156173E-1,3.249256808E-1,4.703322025E-1
2.139431042E0,-1.647312311E-2,-3.078113922E-1,2.548245817E-1,3.999434765E-1
2.149400042E0,2.865828199E-2,-3.032833632E-1,1.007285222E0,1.052342917E0
2.159370042E0,-1.522913347E-1,-2.213731726E-1,8.035068333E-2,2.804549242E-1
2.169340042E0,1.645966721E-1,-1.744465444E-1,-5.649480361E-1,6.137507188E-1
2.179309292E0,-2.924198212E-1,4.418834424E-1,5.427923512E-1,7.585472069E-1
2.189278292E0,-2.002141457E-3,-8.902544574E-3,4.853797102E-1,4.854654745E-1
2.199248292E0,1.462564234E-1,-2.947410197E-1,-1.568520277E0,1.602659998E0
2.209218292E0,1.732944054E-1,-4.912752019E-1,-1.017672801E0,1.143258591E0
2.219188292E0,3.451513459E-1,-9.269815726E-2,5.242537540E-1,6.344796281E-1
2.229158292E0,-1.246817508E-1,3.948611574E-1,2.326946831E0,2.363502153E0
2.239127292E0,7.800876383E-2,-8.395949347E-2,-4.392849398E-1,4.539887907E-1
2.249097292E0,-2.894791286E-1,1.949107942E-1,1.773817188E-1,3.914749771E-1
2.259067292E0,-2.326515197E-1,3.900457926E-1,1.297694789E0,1.374872436E0
2.269037292E0,-3.727206022E-1,-1.662762665E-1,-2.773556578E0,2.803423717E0
2.279006292E0,-3.767157489E-1,-3.742006421E-1,-1.721509166E0,1.801536756E0
2.288976292E0,1.879400726E-1,-1.739024793E-1,3.459253711E-1,4.303811166E-1
2.298946292E0,6.982291773E-2,3.838862442E-2,1.716743100E0,1.718591225E0
2.308916292E0,1.629343452E-1,1.765750223E-1,1.346658204E0,1.367923483E0
2.318885292E0,4.406819858E-2,4.270672466E-2,-2.614138091E-1,2.685201110E-1
2.328855292E0,-1.571662863E-1,-1.668970398E-1,-3.420369726E-1,4.117586114E-1
2.338825292E0,4.236489369E-1,-6.457313220E-2,9.331834584E-1,1.026878512E0
2.348795292E0,3.367573754E-1,-2.003100583E-1,1.584702446E0,1.632425034E0
2.358764292E0,3.756592301E-1,-4.532166620E-1,-1.297088433E0,1.424416934E0
2.368734292E0,3.613449538E-2,-2.568066051E-1,-1.788518257E0,1.807222424E0
2.378704292E0,9.758229995E-2,1.194326139E-1,6.264180601E-2,1.664645620E-1
2.388674292E0,-4.426630955E-2,4.404487915E-1,1.522010939E0,1.585077897E0
2.398643292E0,-2.379340771E-2,6.645670491E-1,1.076718569E0,1.265519011E0
2.408613292E0,-2.312897215E-1,2.056616494E-1,-2.170223325E0,2.192181774E0
2.418583292E0,-2.469442344E-1,2.627888915E-1,-2.409426486E0,2.436262598E0
2.428553292E0,-9.125608770E-2,4.835296146E-1,1.433839020E0,1.515923117E0
2.438522292E0,-2.698706736E-1,3.954005265E-1,4.894435251E-1,6.846361961E-1
2.448492292E0,-5.704832297E-2,7.889779642E-2,-3.007690787E-2,1.019018833E-1
2.458462292E0,1.610617196E-1,-5.170969631E-2,8.303514004E-2,1.884399233E-1
2.468432292E0,1.809973263E-1,1.533917258E-1,2.249745458E-1,3.269596305E-1
2.478401292E0,2.677940715E-2,3.047429927E-1,-2.797541857E-2,3.071938350E-1
2.488371292E0,2.446919235E-1,2.161140772E-1,-8.282756388E-2,3.368083092E-1
2.498341292E0,1.286432942E-1,3.653745990E-1,-5.182036400E-1,6.469796807E-1
2.508311292E0,-3.195801562E-1,2.718155672E-1,-7.530728441E-1,8.620521373E-1
2.518280292E0,-1.444495424E-1,-2.642383979E-1,-1.020529751E0,1.064034103E0
2.528250292E0,9.077619575E-3,-5.714921667E-1,-5.823762470E-1,8.159949712E-1
2.538220292E0,5.966157155E-2,-4.620759611E-1,6.675508833E-1,8.140625767E-1
2.548190292E0,-8.255903050E-4,-4.250276373E-1,2.232500850E0,2.272599661E0
2.558159292E0,5.064538794E-1,-3.724009423E-3,8.811689669E-1,1.016350406E0
2.568129292E0,2.707870785E-1,-8.363844479E-2,-9.039386094E-1,9.473257311E-1
2.578099292E0,2.630535693E-1,-1.075867215E-1,5.539535165E-1,6.226046751E-1
2.588069292E0,2.620925794E-1,2.511893038E-3,2.073409222E0,2.089910197E0
2.598038292E0,3.515839775E-1,-2.218464316E-1,2.281718034E-1,4.742251620E-1
2.608008292E0,1.203378177E-1,-5.908779524E-1,-3.073334554E0,3.131932826E0
2.617978292E0,-8.052017950E-2,-3.079787687E-1,-1.694399720E0,1.724043164E0
2.627948292E0,-1.807809793E-1,2.089965266E-2,1.740899118E0,1.750385185E0
2.637917292E0,-4.037944604E-1,-3.867227834E-2,1.047572538E0,1.123367141E0
2.647887292E0,-9.940897012E-2,-1.546413489E-1,-3.479105008E-1,3.934943541E-1
2.657857292E0,1.301455718E-1,-1.050553887E-1,-3.756765890E-1,4.112267065E-1
2.667827292E0,-6.423910087E-2,-1.329942257E-1,-1.055023060E0,1.065311121E0
2.677797292E0,-2.497534926E-1,-7.426152086E-2,3.699369621E-1,4.524874987E-1
2.687766292E0,-3.166436114E-1,-7.669827489E-2,1.234575266E-1,3.484071797E-1
2.697736292E0,2.323858917E-2,-4.652656538E-1,-1.432731557E-1,4.873800958E-1
2.707706292E0,3.688410477E-1,-5.325872423E-1,4.054038334E-1,7.642284719E-1
2.717676292E0,-2.026434811E-2,-5.126445459E-1,4.629895520E-1,6.910675796E-1
2.727645292E0,-1.737416991E-1,-7.160319755E-1,-3.941146141E-1,8.355921835E-1
2.737615292E0,1.791196026E-1,-2.880166120E-1,1.219033366E-1,3.604134075E-1
2.747585292E0,-7.537674934E-2,-9.377002498E-2,7.096549290E-1,7.197809321E-1
2.757555292E0,-8.276523622E-2,1.256485148E-1,-7.446487606E-2,1.678768935E-1
2.767524292E0,-3.625955636E-1,2.129464578E-2,-1.612581970E0,1.652982037E0
2.777494292E0,1.626478499E-1,-2.845904360E-1,-1.321040967E0,1.361100759E0
2.787464292E0,4.392743417E-1,-3.368571801E-1,3.129266095E-1,6.358913193E-1
2.797434292E0,-1.773162665E-2,-2.179960219E-1,8.489823836E-1,8.767027796E-1
2.807403292E0,-2.655598687E-1,-3.577776041E-2,1.177494162E0,1.207598689E0
2.817373292E0,-1.329003230E-1,-1.392507830E-1,-1.405658948E-1,2.383527789E-1
2.827343292E0,1.561774673E-1,-9.904410386E-2,5.943747336E-1,6.224808910E-1
2.837313292E0,2.361869473E-2,3.040854367E-1,1.659146272E0,1.686947583E0
2.847282292E0,-5.714268241E-2,1.331769877E-1,3.844450736E-1,4.108520547E-1
2.857252292E0,-1.834358162E-1,-2.998431721E-1,-3.706383356E0,3.723013861E0
2.867222292E0,-5.708042418E-1,-1.084157836E-1,-1.270816893E0,1.397335693E0
2.877192292E0,6.157240508E-2,2.572406695E-2,9.725761503E-1,9.748626861E-1
2.887161292E0,3.787883310E-1,-3.196820805E-2,8.043640351E-1,8.896651432E-1
2.897131292E0,3.393450973E-1,6.576230512E-2,5.757536906E-1,6.715445540E-1
2.907101292E0,1.907351879E-1,1.410221238E-1,4.175192642E-1,4.801973420E-1
2.917071292E0,2.551973966E-1,2.185346418E-1,5.729446882E-1,6.641902714E-1
2.927040292E0,3.175343616E-1,4.011875158E-2,4.832981014E-1,5.796676978E-1
2.937010292E0,3.141592391E-1,-9.821135986E-2,1.118689299E-2,3.293427475E-1
2.946980292E0,4.918508603E-1,-1.735118304E-2,1.284633279E-1,5.086463987E-1
2.956950292E0,1.930646455E-1,-2.008748354E-2,-7.972672695E-1,8.205562524E-1
2.966919292E0,-1.904743290E-2,1.377271265E-1,-1.887352574E-1,2.344196311E-1
2.976889292E0,-2.587237427E-1,4.542725960E-1,2.306972158E-1,5.714217111E-1
2.986859292E0,-2.618075459E-1,2.571276538E-1,-5.082820845E-1,6.269038992E-1
2.996829292E0,-2.012962095E-1,3.592190158E-1,-8.785406435E-1,9.702536408E-1
3.006798292E0,-2.688398643E-1,4.735899693E-1,5.995430875E-1,8.099470633E-1
3.016768292E0,-2.119108794E-1,4.785878038E-1,-7.351879656E-2,5.285428272E-1
3.026738292E0,-4.615166384E-1,2.949567271E-1,-1.066174870E0,1.198635029E0
3.036708292E0,-4.939998217E-2,2.816393463E-1,1.438993925E-1,3.201064116E-1
3.046677292E0,5.609672517E-3,1.459167367E-1,6.861081916E-1,7.014753118E-1
3.056647292E0,-2.897494527E-2,2.067321101E-1,-2.319356561E-2,2.100372688E-1
3.066617292E0,2.256827167E-1,2.596385578E-1,-3.634132236E-1,5.004138692E-1
3.076587292E0,2.480124111E-1,8.863812480E-3,-4.381435633E-1,5.035459316E-1
3.086556292E0,1.930286303E-1,-1.392907633E-1,7.811921042E-1,8.166535817E-1
3.096526292E0,1.614805995E-1,-9.122912656E-4,-3.144977564E-1,3.535331032E-1
3.106496292E0,1.678104297E-1,7.175356784E-2,-1.905730373E-1,2.638692808E-1
3.116466292E0,3.538916907E-1,-5.272779248E-2,1.446944384E0,1.490525947E0
3.126435292E0,1.562624164E-1,-2.357869612E-2,4.627954245E-2,1.646684357E-1
3.136405292E0,-1.505767300E-1,-3.314531834E-1,-2.204008538E0,2.233872914E0
3.146375292E0,-3.025210324E-1,-3.621771222E-1,-9.900622487E-2,4.821757724E-1
3.156345292E0,3.609438714E-2,-3.849094156E-1,1.186559100E0,1.247950544E0
3.166314292E0,2.112669182E-1,-1.121124116E-1,6.180156112E-1,6.626810690E-1
3.176284292E0,-3.504096373E-1,-9.307247043E-2,-1.443572295E-1,3.902414744E-1
3.186254750E0,1.381913588E-1,-3.420467210E-2,5.130428874E-1,5.324282258E-1
3.196224750E0,1.244074981E-1,-2.147196945E-2,4.720486432E-1,4.886391231E-1
3.206193750E0,-2.070451554E-1,-4.894610667E-1,-1.630615368E0,1.715035367E0
3.216163750E0,-3.745648140E-1,-3.779977144E-1,-7.882146102E-1,9.510327774E-1
3.226133750E0,-2.868470410E-2,-1.911611941E-1,3.490846217E-1,3.990306849E-1
3.236103750E0,-1.952763548E-1,-3.013807523E-1,1.855157804E-1,4.042020750E-1
3.246072750E0,4.016083326E-2,-2.353514533E-1,5.230562443E-1,5.749704634E-1
3.256042750E0,7.643964523E-2,-6.775523264E-2,5.654953355E-1,5.746466439E-1
3.266012750E0,2.978830941E-1,-2.340275523E-1,4.379418343E-1,5.790477383E-1
3.275982750E0,4.313406933E-2,-4.170765935E-1,-4.518202007E-1,6.164048398E-1
3.285951750E0,3.051495021E-1,-5.582804926E-1,-8.454594362E-1,1.058109156E0
3.295921750E0,5.146969917E-1,-1.540208862E-1,1.913904780E-1,5.703207358E-1
3.305891750E0,2.368802078E-1,-2.771467386E-2,3.181592828E-1,3.976250309E-1
3.315861750E0,-2.713846091E-1,-9.393762080E-2,5.095316344E-1,5.848900488E-1
3.325830750E0,-3.476180669E-1,-4.430540184E-1,-3.514889967E-1,6.638371024E-1
3.335800750E0,-3.192279346E-1,-4.530343385E-1,-1.532589136E0,1.629716554E0
3.345770750E0,-2.774266284E-1,-4.641506263E-1,6.371365911E-1,8.356700149E-1
3.355740750E0,3.080927529E-1,-5.882832505E-1,1.289825606E-1,6.764871234E-1
3.365709750E0,1.826159269E-1,-5.269555331E-1,1.217858076E-1,5.708436682E-1
3.375679750E0,-4.122285573E-1,-3.876453644E-1,2.927133697E-1,6.370890274E-1
3.385649750E0,-3.917273056E-1,-6.494566014E-1,3.452605426E-1,8.333360675E-1
3.395619750E0,2.009874582E-1,-7.810021428E-1,2.370677572E-1,8.405720831E-1
3.405588750E0,3.601292080E-1,-3.355678691E-1,-4.025223255E-3,4.922550596E-1
3.415558750E0,-2.906515684E-2,-2.212664061E-1,5.497201324E-1,5.932923645E-1
3.425528750E0,1.317301125E-1,-5.191314835E-1,-7.126399326E-1,8.914628390E-1
3.435498750E0,-8.127739392E-3,-2.859474469E-1,-8.903514344E-1,9.351778864E-1
3.445467750E0,-3.338547080E-1,4.106790086E-1,7.057273543E-1,8.821379216E-1
3.455437750E0,-3.404688956E-1,-4.975291645E-2,-1.618042685E0,1.654223852E0
3.465407750E0,1.435374498E-1,-4.929829178E-1,-5.649041820E-1,7.633818779E-1
3.475377750E0,6.951332228E-1,-7.338999702E-1,2.387219346E-1,1.038656597E0
3.485346750E0,4.994871778E-1,-5.938841156E-1,2.357644129E-1,8.110306048E-1
3.495316750E0,2.989041824E-1,-2.357103261E-1,4.069966149E-1,5.572695153E-1
3.505286750E0,-1.394299636E-1,-5.278336387E-3,1.641239759E0,1.647160138E0
3.515256750E0,-3.753263773E-1,-1.424363278E-1,1.023767939E0,1.099663034E0
3.525225750E0,-1.099168735E-1,-3.674475466E-1,-1.500395536E-3,3.835383550E-1
3.535195750E0,8.761126237E-2,-5.934369498E-1,3.954705834E-1,7.184985240E-1
3.545165750E0,-1.097828078E-1,-6.909379917E-1,-6.112170535E-1,9.289961571E-1
3.555135750E0,-1.914957096E-1,-1.756786989E-1,-1.947902831E0,1.965161329E0
3.565104750E0,-3.048836913E-2,4.041132433E-1,6.450391030E-1,7.617824483E-1
3.575074750E0,1.526473570E-1,5.770847362E-1,8.046704292E-1,1.001909431E0
3.585044750E0,3.228865374E-2,1.819995939E-1,-1.852819503E0,1.862016788E0
3.595014750E0,-1.814589822E-1,-6.710593589E-4,-7.561268449E-1,7.775960507E-1
3.604983750E0,-1.010786060E-1,-2.613978023E-1,1.023930491E0,1.061592835E0
3.614953750E0,4.435801947E-2,-2.294348750E-1,1.490010881E-1,2.771449441E-1
3.624923750E0,-1.570807707E-1,-5.389789799E-2,-2.590643978E-1,3.077234378E-1
3.634893750E0,-8.751518531E-2,-7.406832520E-2,8.707737869E-1,8.782892533E-1
3.644862750E0,2.069210848E-1,3.575572371E-4,3.680360323E-1,4.222167503E-1
3.654832750E0,1.483662632E-1,1.420912872E-1,-4.311210573E-2,2.099074454E-1
3.664802750E0,1.319710908E-1,1.822212033E-1,1.603786004E-1,2.763009794E-1
3.674772750E0,8.657054935E-2,3.811648222E-2,-1.082741202E0,1.086865141E0
3.684741750E0,-2.147714834E-1,7.621286463E-2,-2.810247856E-1,3.618150370E-1
3.694711750E0,-4.461734349E-2,1.449288496E-1,3.437086916E-1,3.756737194E-1
3.704681750E0,1.664732263E-1,3.680258545E-2,4.867853808E-1,5.157788018E-1
3.714651750E0,3.137061165E-1,-2.534840162E-2,5.542458773E-2,3.195715161E-1
3.724620750E0,3.397559738E-1,-4.176506256E-2,-9.236846566E-3,3.424379674E-1
3.734590750E0,4.981909231E-1,-8.614264280E-3,2.852803892E-1,5.741544234E-1
3.744560750E0,2.153550904E-1,4.119547066E-2,2.713096368E-1,3.488320524E-1
3.754530750E0,-5.437170519E-2,2.521096921E-2,8.948695779E-2,1.077023255E-1
3.764499750E0,-1.314133944E-1,5.842551128E-2,-3.676284814E-1,3.947578003E-1
3.774469750E0,-3.584977983E-1,1.423502823E-1,-6.368939316E-1,7.445926097E-1
3.784439750E0,-3.683965132E-1,2.387826725E-1,2.036000490E-2,4.394857056E-1
3.794409750E0,-3.559512263E-1,5.756787092E-2,-3.958939219E-1,5.354879388E-1
3.804378750E0,-2.287899089E-1,1.488956921E-3,-1.460271943E-1,2.714239873E-1
3.814348750E0,-2.183661141E-1,-4.427370080E-2,3.293578702E-1,3.976437187E-1
3.824318750E0,-7.612380423E-2,-1.806379601E-1,-1.637629688E-2,1.967055904E-1
3.834288750E0,1.085989841E-1,-1.907747297E-1,2.919631720E-2,2.214523917E-1
3.844257750E0,3.445865414E-1,-6.806563756E-2,-4.527148247E-2,3.541501414E-1
3.854227750E0,3.789864785E-1,-3.372339601E-2,1.621222401E-1,4.135838960E-1
3.864197750E0,5.029563308E-1,7.162994491E-2,4.539959496E-1,6.813282924E-1
3.874167750E0,5.380379071E-1,1.291154021E-1,4.342504871E-1,7.033697904E-1
3.884136750E0,3.442834364E-1,1.118107318E-1,6.275699615E-2,3.673842197E-1
3.894106750E0,6.780146219E-2,-6.813134565E-2,-2.218895549E-1,2.418137570E-1
3.904076750E0,-2.201383869E-1,-2.712212342E-1,-8.786312753E-1,9.455235508E-1
3.914046750E0,-4.053454343E-1,-2.800927029E-1,3.261933571E-1,5.908967334E-1
3.924015750E0,-3.288028598E-1,-2.295995838E-1,2.109277797E-1,4.531200920E-1
3.933985750E0,-1.975474316E-1,-1.421957788E-1,1.989497584E-1,3.143654460E-1
3.943955750E0,-2.506028007E-1,-2.498383320E-1,-3.621063709E-2,3.557136012E-1
3.953925750E0,-1.559840158E-1,-5.544377847E-2,-3.412329805E-1,3.792689979E-1
3.963894750E0,-9.389979662E-2,7.170469334E-2,1.049639529E-1,1.580384961E-1
3.973864750E0,-2.789296186E-1,-1.075338590E-1,-4.477329969E-2,3.022745629E-1
3.983834750E0,8.761996010E-2,-1.385238735E-2,-3.978264266E-1,4.075966287E-1
3.993804750E0,3.645520420E-1,9.451697024E-2,3.209361255E-2,3.779704339E-1
4.003773750E0,4.701412084E-1,6.546725370E-2,2.586147469E-1,5.405555517E-1
4.013743750E0,4.139071468E-1,1.252225543E-2,2.238407707E-1,4.707235108E-1
4.023713750E0,1.530233512E-1,7.604629207E-2,-3.452780843E-2,1.743311622E-1
4.033683750E0,4.766544219E-2,1.002818498E-1,6.113883770E-1,6.213889211E-1
4.043652750E0,-2.793655286E-2,1.154946878E-1,-4.540403885E-1,4.693315973E-1
4.053622750E0,-1.988424985E-1,7.882225771E-2,-7.264791226E-1,7.573131474E-1
4.063592750E0,-3.592477403E-1,1.404590187E-1,3.272692448E-1,5.058585113E-1
4.073562750E0,-6.954901222E-2,2.467739891E-1,-8.436304271E-2,2.699103365E-1
4.083531750E0,-1.808139613E-1,1.260951507E-1,-4.524394208E-1,5.032843184E-1
4.093501750E0,-3.696676248E-1,-1.635606734E-1,-1.949221963E-1,4.487771265E-1
4.103471750E0,-2.050670606E-1,-2.415460301E-1,4.894587278E-1,5.830667460E-1
4.113441750E0,3.007637797E-2,-1.204404547E-1,2.467133242E-1,2.761846411E-1
4.123410750E0,1.945542054E-1,-1.312119578E-1,1.121180212E-1,2.600737730E-1
4.133380750E0,2.627833001E-1,-1.849200223E-1,-3.203759623E-1,4.537523935E-1
4.143350750E0,3.069030638E-1,-2.611948308E-1,-1.244755268E-2,4.031961951E-1
4.153320750E0,2.978503497E-1,-1.493157232E-1,-6.080870390E-2,3.386852735E-1
4.163289750E0,2.465047979E-1,-1.465392824E-1,1.000055140E-1,3.037095315E-1
4.173259750E0,-3.467978122E-2,1.042546217E-2,6.907918113E-1,6.917403444E-1
4.183230500E0,-1.118284379E-1,2.104496053E-1,2.024960947E-1,3.127288031E-1
4.193200500E0,-1.307316456E-1,2.418290536E-1,6.171724427E-1,6.756285061E-1
4.203169500E0,-1.447747755E-1,-1.383847829E-1,-2.195842316E0,2.204956589E0
4.213139500E0,-3.186424821E-1,-8.488529043E-2,-4.232612300E-1,5.365525256E-1
4.223109500E0,2.203223549E-2,1.502645984E-1,6.431779343E-1,6.608651330E-1
4.233078500E0,1.714786987E-1,8.795717999E-2,1.094259047E0,1.111100478E0
4.243048500E0,-1.576773695E-1,-1.212680184E-1,-1.010837406E-1,2.231277834E-1
4.253018500E0,-4.448737085E-2,-3.665342481E-1,3.183937562E-1,4.875459621E-1
4.262988500E0,1.987914450E-2,-4.309378567E-1,-3.681354350E-1,5.671210763E-1
4.272958500E0,1.860378089E-1,-2.695619406E-1,-4.461308599E-1,5.534495915E-1
4.282927500E0,2.127753719E-1,7.533829476E-2,9.214393258E-2,2.438026289E-1
4.292897500E0,1.818220395E-1,1.007813847E-1,6.145142984E-1,6.487248758E-1
4.302867500E0,-1.233486587E-2,-5.940436715E-2,-2.808505386E-1,2.873291715E-1
4.312836500E0,-6.318910539E-2,-5.862216501E-2,-1.032354575E0,1.035946615E0
4.322806500E0,4.772990774E-2,1.021334163E-1,2.591912824E-1,2.826473062E-1
4.332776500E0,1.361318233E-1,-5.803278395E-2,1.429386950E-1,2.057453471E-1
4.342746500E0,-2.443578830E-2,-2.798280068E-1,-1.361179179E-1,3.121360420E-1
4.352715500E0,-1.650929728E-1,-6.302440394E-1,1.089137471E-1,6.605493496E-1
4.362685500E0,-1.481097349E-1,-7.222711008E-1,1.720876497E-1,7.571170291E-1
4.372655500E0,-1.740991467E-1,-7.478771545E-1,-2.041771692E-1,7.945558933E-1
4.382625500E0,-8.877242804E-2,-6.391959804E-1,3.561123902E-1,7.370672153E-1
4.392594500E0,-8.365699142E-2,-4.159121570E-1,1.124682695E-1,4.388969426E-1
4.402564500E0,6.752127092E-2,-2.084216996E-1,3.540062231E-1,4.163161453E-1
4.412534500E0,1.860355248E-1,-6.086239322E-2,5.442225802E-1,5.783525432E-1
4.422504500E0,2.557348470E-1,-5.019352242E-2,2.216878259E-1,3.421479122E-1
4.432473500E0,1.450885700E-1,-2.634745506E-1,-1.844798877E0,1.869158214E0
4.442443500E0,1.748659177E-2,-6.685009279E-2,-5.021313983E-1,5.068635487E-1
4.452413500E0,1.480670320E-1,-6.938494300E-2,7.106530488E-1,7.292227862E-1
4.462383500E0,-6.717166224E-2,-2.743672190E-1,4.805943489E-1,5.574588158E-1
4.472352500E0,-2.419812091E-1,-2.903328221E-1,-1.526509202E-1,4.076154518E-1
4.482322500E0,-1.293245314E-1,-3.005286485E-1,5.071290135E-1,6.035081933E-1
4.492292500E0,-9.797817472E-2,-2.614892016E-1,3.306881118E-1,4.328174587E-1
4.502262500E0,-3.272191415E-2,-1.954668461E-1,-2.223696113E-1,2.978695278E-1
4.512231500E0,-1.144725488E-1,-8.624246573E-2,-9.563045186E-1,9.669850359E-1
4.522201500E0,4.309818204E-2,1.083659543E-1,3.201128376E-1,3.406946758E-1
4.532171500E0,1.185576147E-1,7.638769638E-2,7.941103578E-2,1.618551845E-1
4.542141500E0,1.785558397E-1,-3.279835735E-2,-5.602509677E-2,1.899913987E-1
4.552110500E0,-1.520915609E-2,-2.307242774E-3,3.099609017E-3,1.569233489E-2
4.562080500E0,5.273993002E-2,-1.091744050E-1,8.515358627E-2,1.481610076E-1
4.572050500E0,1.516597806E-2,-1.116217571E-1,-6.709036767E-2,1.311127034E-1
4.582020500E0,-1.248049809E-2,-9.048806506E-2,1.982586175E-1,2.182895604E-1
4.591989500E0,-1.519643839E-2,-5.955374981E-2,-1.549909759E-1,1.667326706E-1
4.601959500E0,1.372812945E-1,-2.243218504E-2,6.969354808E-2,1.555845346E-1
4.611929500E0,-3.228551086E-2,5.671407694E-2,5.256062150E-3,6.547111518E-2
4.621899500E0,1.191642450E-2,-1.480772646E-2,3.315195858E-1,3.320640085E-1
4.631868500E0,-4.570134418E-2,-1.530259734E-2,-4.990733045E-1,5.013949996E-1
4.641838500E0,-1.072122804E-1,1.800775684E-2,8.354326308E-2,1.371066343E-1
4.651808500E0,-1.307835396E-1,-2.554983820E-2,5.077020407E-2,1.425999372E-1
4.661778500E0,-4.619658507E-2,-5.701001000E-2,-1.998987615E-2,7.605169861E-2
4.671747500E0,3.061053939E-3,-1.867677424E-2,-1.648464578E-1,1.659293422E-1
4.681717500E0,1.227748093E-1,2.251786045E-2,1.984509909E-1,2.344429646E-1
4.691687500E0,3.562105503E-2,-3.887891802E-2,9.092011034E-2,1.051042163E-1
4.701657500E0,7.628734354E-2,2.565575503E-2,8.805263579E-2,1.192947745E-1
4.711626500E0,5.237787774E-2,-1.163388065E-2,-3.199292350E-1,3.243971403E-1
4.721596500E0,1.452253035E-1,-3.800089921E-2,3.228832483E-2,1.535480154E-1
4.731566500E0,-9.976744099E-2,-2.854307357E-2,3.360839224E-1,3.517394664E-1
4.741535500E0,6.712930648E-2,-1.128103590E-1,-8.950274527E-2,1.588812837E-1
4.751505500E0,-9.267352587E-2,-7.079138109E-2,-1.468072128E-1,1.874890924E-1
4.761475500E0,1.966235898E-2,-2.708005453E-2,1.203678578E-1,1.249334179E-1
4.771445500E0,6.627331065E-2,2.034286525E-2,4.742033422E-2,8.399209468E-2
4.781414500E0,1.327454997E-2,2.331933556E-2,1.766443849E-3,2.689099128E-2
4.791384500E0,-5.886996819E-2,-2.203128532E-2,-2.551789230E-1,2.628066465E-1
4.801354500E0,4.230060356E-2,-3.779596344E-2,2.448287666E-2,6.178419833E-2
4.811324500E0,2.694928704E-2,-1.673352978E-2,2.283349407E-1,2.305279164E-1
4.821293500E0,1.136518007E-1,-9.719576245E-2,-6.837792456E-2,1.644362752E-1
4.831263500E0,-9.791942848E-2,-3.411297589E-2,1.161496764E-1,1.557005361E-1
4.841233500E0,4.134007048E-2,-4.756665622E-2,-7.816850245E-2,1.004086798E-1
4.851203500E0,-2.733385110E-2,2.790415563E-2,4.322027922E-2,5.825610571E-2
4.861172500E0,-3.636624612E-2,-2.255645664E-3,-1.102165067E-1,1.160830313E-1
4.871142500E0,-6.145706875E-2,1.424257480E-2,-3.144164801E-2,7.048687442E-2
4.881112500E0,-2.050092280E-2,-6.817186503E-3,-5.658175170E-2,6.056613322E-2
4.891082500E0,-1.152321752E-3,1.330981599E-3,1.619672889E-1,1.619768564E-1
4.901051500E0,-9.130756147E-3,-5.051580450E-2,-3.965581656E-2,6.486756508E-2
4.911021500E0,1.516146474E-2,3.379398286E-3,8.934545517E-4,1.555919685E-2
4.920991500E0,2.163769461E-2,2.162007987E-4,-8.666099846E-2,8.932169516E-2
4.930961500E0,3.322448233E-2,2.526851404E-2,1.816835153E-1,1.864169085E-1
4.940930500E0,-2.176730180E-2,4.586820910E-3,-1.060047573E-1,1.083137245E-1
4.950900500E0,-1.545024410E-2,-2.087439543E-2,-1.348607665E-1,1.373385480E-1
4.960870500E0,-1.117728163E-2,9.348560362E-3,1.645008874E-1,1.651449943E-1
4.970840500E0,-1.741940361E-3,-5.821529017E-3,-4.639180899E-2,4.678808072E-2
4.980809500E0,1.122712183E-1,2.214999293E-2,-7.781533062E-2,1.383859614E-1
4.990779500E0,5.278701838E-2,4.282149911E-2,1.288685399E-1,1.456957469E-1
5.000749500E0,4.001476251E-2,-1.388032608E-2,5.131516457E-2,6.653638692E-2
5.010719500E0,-1.061105188E-2,-3.231310241E-2,-9.463367701E-2,1.005597526E-1
5.020688500E0,-2.154127037E-2,-5.932146460E-3,-1.859999299E-2,2.907191824E-2
5.030658500E0,-1.090005417E-1,-4.275573621E-2,8.078513145E-2,1.422512163E-1
5.040628500E0,-3.260369075E-2,-1.137014838E-2,-1.086950612E-1,1.140477850E-1
5.050598500E0,4.207285451E-2,1.182064894E-3,-3.685149193E-2,5.594242416E-2
5.060567500E0,-3.891968865E-2,1.513253929E-2,1.763023227E-1,1.811801449E-1
5.070537500E0,-3.698966894E-3,-7.571066190E-2,-9.820223272E-2,1.240542832E-1
5.080507500E0,-5.359247234E-3,-7.780428487E-3,-1.092464536E-1,1.096542030E-1
5.090477500E0,-8.789351843E-3,-8.328577545E-2,2.067429274E-1,2.230614515E-1
5.100446500E0,-2.756094234E-2,-2.701640211E-2,-8.021327376E-2,8.901494714E-2
5.110416500E0,7.809303682E-2,-2.904627673E-2,5.601106346E-2,1.003964532E-1
5.120386500E0,1.052966960E-1,2.795656130E-2,-1.182359630E-1,1.607753291E-1
5.130355500E0,6.975382922E-2,-7.556114676E-3,2.758663720E-1,2.846488130E-1
5.140325500E0,-9.491163902E-3,-4.403435782E-2,-1.602318352E-1,1.664432272E-1
5.150295500E0,-9.714666411E-2,-6.097963903E-2,1.030653620E-1,1.542026574E-1
5.160265500E0,-1.130125173E-1,-6.508720296E-2,-2.570365834E-1,2.882290379E-1
5.170234500E0,3.932928611E-2,-8.371001836E-3,1.227038205E-2,4.204079796E-2
5.180204500E0,6.567831991E-2,4.110874915E-2,1.936738157E-1,2.085979814E-1
5.190173792E0,1.075573758E-1,-9.061174281E-3,-9.762101948E-2,1.455354163E-1
5.200143792E0,-4.850782497E-2,-4.332560219E-2,4.188945293E-3,6.517410644E-2
5.210112792E0,-4.739555664E-2,-7.739624972E-2,1.809713244E-2,9.254201458E-2
5.220082792E0,-4.847263204E-2,-5.010193127E-2,7.645936131E-2,1.034689978E-1
5.230052792E0,5.006899500E-2,1.133168923E-2,-1.654446280E-1,1.732259691E-1
5.240022792E0,3.818224512E-2,2.084897831E-2,1.113187069E-1,1.195174391E-1
5.249991792E0,1.236722656E-2,1.022151768E-2,-8.762695849E-2,8.908373348E-2
5.259961792E0,-3.156509735E-3,-6.070021978E-3,7.629914761E-2,7.660527819E-2
5.269931792E0,-1.014374971E-2,-2.680313406E-3,-1.452237868E-1,1.456022939E-1
5.279901792E0,-4.434932174E-2,-4.547998139E-2,1.819904941E-1,1.927584784E-1
5.289870792E0,-2.986215061E-2,-3.390027885E-2,-1.518182766E-1,1.583974939E-1
5.299840792E0,2.405840535E-2,2.185527499E-2,2.230478883E-2,3.942034395E-2
5.309810792E0,-4.685638854E-2,3.906552552E-1,-1.739174774E0,1.783125330E0
5.319780792E0,4.931057459E-2,-1.848356031E-2,1.340497577E0,1.341531561E0
5.329749792E0,5.295987669E-2,-3.497162123E-2,-7.340167683E-1,7.367553047E-1
5.339719792E0,-1.085249438E-1,-2.153317563E-1,1.474661940E-1,2.826512110E-1
5.349689792E0,-8.829056265E-2,-2.706964832E-1,1.376807617E0,1.405941330E0
5.359659792E0,4.943733126E-2,-7.249994664E-2,5.267551929E-1,5.340143493E-1
5.369628792E0,3.786854200E-2,-1.023643722E-2,-2.274754000E-1,2.308329888E-1
5.379598792E0,1.901456972E-1,-7.284659060E-2,1.208901311E0,1.225930011E0
5.389568792E0,2.411008560E-1,-1.392921977E-1,-3.591728228E-1,4.544634812E-1
5.399538792E0,9.175465420E-2,-1.640013159E-1,-2.115560630E0,2.123890799E0
5.409507792E0,-4.401683444E-2,1.820609896E-1,3.063946849E-1,3.591119444E-1
5.419477792E0,2.855182612E-2,2.314377291E-1,7.017500782E-1,7.394807648E-1
5.429447792E0,1.356067982E-2,-3.071531876E-2,-6.899539053E-1,6.907703774E-1
5.439416792E0,-1.040388503E-1,-1.131446918E-1,-2.332653129E-1,2.793537361E-1
5.449386792E0,-2.319825617E-1,-9.280004499E-2,5.721968293E-1,6.243692567E-1
5.459356792E0,-8.149955157E-2,-1.070175316E-1,1.161607862E-1,1.777308561E-1
5.469326792E0,-1.836539173E-2,-5.519679300E-2,9.587153256E-2,1.121397535E-1
5.479295792E0,7.261635192E-2,1.841289123E-2,-1.624988008E-1,1.789358247E-1
5.489265792E0,2.995767949E-2,6.566071888E-2,-2.335471487E-1,2.444443970E-1
5.499235792E0,8.744660843E-2,6.402439842E-2,3.634980083E-2,1.143124706E-1
5.509205792E0,7.508141013E-2,7.754930058E-2,1.005791259E-1,1.475373605E-1
5.519174792E0,7.898722228E-2,2.753054596E-2,-1.184131336E-1,1.449778689E-1
5.529144792E0,4.525264347E-2,-1.846061912E-2,-1.659732163E-2,5.161460341E-2
5.539114792E0,-7.551640643E-2,-9.440904343E-2,9.042719007E-2,1.509730831E-1
5.549084792E0,1.134707015E-2,-3.608649796E-2,1.879645944E-1,1.917333567E-1
5.559053792E0,3.974237362E-2,-2.520940234E-3,-8.388590991E-2,9.285826448E-2
5.569023792E0,7.826942174E-2,2.930862942E-2,-8.000335872E-2,1.156963074E-1
5.578993792E0,-7.924228879E-2,4.467443607E-2,-2.758716345E-3,9.100964831E-2
5.588963792E0,3.289086213E-2,-1.216531489E-2,-4.075918615E-2,5.376908920E-2
5.598932792E0,-1.050906913E-1,-1.681131145E-2,1.239726663E-2,1.071464690E-1
5.608902792E0,-5.536271688E-2,-7.936539095E-2,2.556168795E-2,1.000864406E-1
5.618872792E0,-7.073566809E-2,-3.608544272E-2,3.277188957E-2,8.590512594E-2
5.628842792E0,5.460104395E-2,-5.322442209E-2,-9.296897471E-2,1.202386933E-1
5.638811792E0,3.853031890E-2,4.420358903E-2,1.459383166E-1,1.572785268E-1
5.648781792E0,1.129357361E-1,1.182160825E-2,-1.254391479E-1,1.692016866E-1
5.658751792E0,2.409065640E-2,1.431128872E-2,4.057207525E-2,4.930786956E-2
5.668721792E0,5.842168774E-2,-3.144438432E-2,-3.231931508E-2,7.379960048E-2
5.678690792E0,4.746179463E-2,-2.045305786E-2,6.361127436E-2,8.195940307E-2
5.688660792E0,-3.181703925E-2,-8.004357660E-2,-1.110620141E-2,8.684840731E-2
5.698630792E0,-5.201628227E-2,-2.695027832E-2,4.784718096E-2,7.563969757E-2
5.708599792E0,5.937577061E-2,-2.518368373E-4,-8.402799726E-2,1.028895033E-1
5.718569792E0,-1.178908311E-2,1.620445726E-2,5.949424982E-2,6.277844118E-2
5.728539792E0,-6.614748588E-2,-6.816592645E-3,-5.841309965E-2,8.851014650E-2
5.738509792E0,2.468676176E-2,-5.805334057E-2,-1.875605518E-1,1.978852878E-1
5.748478792E0,-3.008408898E-2,-2.655723123E-3,2.046081090E-1,2.068250071E-1
5.758448792E0,2.242589928E-3,-7.208280263E-2,8.379878640E-2,1.105585648E-1
5.768418792E0,-2.350765245E-2,-1.319839912E-2,-1.748399341E-1,1.769062182E-1
5.778388792E0,8.415718418E-2,-1.747956140E-2,5.099941492E-3,8.610444889E-2
5.788357792E0,6.062046010E-3,5.529315785E-2,1.658375609E-1,1.749176329E-1
5.798327792E0,7.772773203E-2,-2.297509444E-2,-8.952671885E-2,1.207662564E-1
5.808297792E0,-1.025532190E-2,-1.285281954E-2,-1.065900636E-1,1.078508611E-1
5.818267792E0,2.146987952E-2,-8.821461280E-3,1.230271715E-1,1.251976790E-1
5.828236792E0,9.763205610E-4,-2.738462138E-2,-1.769776762E-2,3.262026469E-2
5.838206792E0,2.144144744E-2,-5.044927415E-3,-3.760695219E-2,4.358290736E-2
5.848176792E0,-4.136620022E-2,5.891206814E-4,6.193078458E-2,7.447772595E-2
5.858146792E0,4.738185223E-2,-8.894839268E-3,-9.821158826E-2,1.094060060E-1
5.868115792E0,-1.943029761E-2,-1.556264768E-2,6.569288313E-2,7.025160043E-2
5.878085792E0,4.977058601E-3,-3.951578488E-2,2.005244136E-2,4.459112884E-2
5.888055792E0,-2.920813954E-2,-7.623960651E-2,-3.069320440E-2,8.722193424E-2
5.898025792E0,-8.012476154E-3,1.089010111E-2,2.785496593E-2,3.096277124E-2
5.907994792E0,9.971746556E-2,6.689105071E-3,-2.587854856E-1,2.774134904E-1
5.917964792E0,-1.051835341E-1,3.454827734E-1,-7.136988634E-1,7.998674829E-1
5.927934792E0,9.697566960E-2,-9.786195218E-2,9.401966089E-1,9.502372891E-1
5.937903792E0,2.806086101E-2,-2.755761674E-2,-7.924555957E-1,7.934309708E-1
5.947873792E0,-6.755944228E-2,-1.954629724E-1,4.293008190E-1,4.765178329E-1
5.957843792E0,-1.095301898E-1,-2.120330496E-1,9.852599305E-1,1.013751452E0