"Time (s)","Linear Acceleration x (m/s^2)","Linear Acceleration y (m/s^2)","Linear Acceleration z (m/s^2)","Absolute acceleration (m/s^2)"
2.671337500E-2,3.501334660E-2,1.611822819E-1,-2.869462609E-2,1.674187684E-1
3.668437502E-2,1.145700146E-1,2.351265182E-1,-3.739937603E-2,2.642148390E-1
4.665537502E-2,1.865102822E-1,2.272703089E-1,-2.895564580E-1,4.126509676E-1
5.662537500E-2,8.621785261E-2,2.509276318E-1,3.744381487E-2,2.679556564E-1
6.659637502E-2,-2.257120259E-2,1.263134803E-1,7.399885297E-2,1.481228704E-1
7.656737501E-2,-3.558725081E-3,-8.058614340E-3,-9.821158826E-2,9.860589160E-2
8.653837501E-2,-6.037838537E-2,-8.150240209E-2,-9.896412492E-3,1.019123641E-1
9.650937503E-2,-6.672579378E-2,-1.638728782E-1,1.643944681E-2,1.776989228E-1
1.064793750E-1,-7.217302334E-2,-1.933748768E-1,1.071566588E-1,2.325625460E-1
1.164503750E-1,-6.163429420E-2,-1.902088288E-1,2.472144306E-2,2.014679491E-1
1.264213750E-1,-4.724827990E-2,-1.210712048E-1,6.578585386E-2,1.456654219E-1
1.363923750E-1,-2.720636353E-2,-5.241794487E-2,-3.369165659E-2,6.799231489E-2
1.463623750E-1,1.705760714E-2,6.522413744E-3,-1.400700510E-2,2.301521310E-2
1.563333750E-1,4.000387207E-2,1.177372686E-1,-4.552057385E-3,1.244310870E-1
1.663043750E-1,8.707077865E-2,1.789413173E-1,-1.003382206E-3,1.990033224E-1
1.762753750E-1,1.036752266E-1,1.371176547E-1,-8.202824950E-2,1.904689937E-1
1.862453750E-1,3.468842413E-2,9.120581992E-2,-9.149547637E-2,1.337655058E-1
1.962163750E-1,7.616363838E-4,1.583262003E-2,3.076804876E-3,1.614678529E-2
2.061873750E-1,-3.119953673E-2,-3.583981855E-2,3.207782507E-2,5.733140978E-2
2.161583750E-1,-5.983799301E-2,-8.202859668E-2,5.089767337E-2,1.135775032E-1
2.261283750E-1,-5.109088730E-2,-1.260478796E-1,-3.137031198E-3,1.360448003E-1
2.360993750E-1,-3.249520663E-2,-1.408696577E-1,-2.030211747E-2,1.459875847E-1
2.460703750E-1,-5.255411647E-2,-7.887907620E-2,3.049264491E-2,9.956728988E-2
2.560413750E-1,-3.741680805E-2,-3.163787234E-2,5.670688212E-2,7.494426576E-2
2.660123750E-1,1.181104671E-2,7.288088361E-3,-1.152018428E-2,1.803695379E-2
2.759823750E-1,5.184970971E-2,5.968411531E-2,-7.509754479E-2,1.090423186E-1
2.859533750E-1,3.563274946E-2,9.719315861E-2,-3.108964562E-2,1.080868585E-1
2.959243750E-1,3.412526418E-2,1.017457550E-1,-1.189908385E-3,1.073226360E-1
3.058953750E-1,2.223454915E-2,7.295158467E-2,-1.112023473E-2,7.707119113E-2
3.158653750E-1,5.068585798E-3,4.994006390E-3,-4.692156672E-2,4.745802446E-2
3.258363750E-1,1.295509100E-2,-3.434003058E-2,-1.909057438E-2,4.137054645E-2
3.358073750E-1,-2.155049801E-2,-6.670456108E-2,3.387292027E-2,7.785433296E-2
3.457783750E-1,-4.562940516E-2,-9.785578519E-2,2.802278101E-2,1.115485256E-1
3.557483750E-1,-2.225329679E-2,-9.688869227E-2,-2.790291309E-3,9.945055873E-2
3.657193750E-1,-8.333342113E-3,-7.444053702E-2,6.361185908E-3,7.517514768E-2
3.756903750E-1,-2.557290729E-2,-2.221128820E-3,2.134643018E-2,3.338528242E-2
3.856613750E-1,1.400773600E-3,2.680430807E-2,-1.335737944E-2,2.998087195E-2
3.956313750E-1,1.938081555E-2,3.046303424E-2,-2.785145760E-2,4.559951926E-2
4.056023750E-1,3.906747703E-2,5.461108471E-2,-6.438953876E-3,6.745441766E-2
4.155733750E-1,1.510408893E-4,6.617552967E-2,2.661243260E-2,7.132632831E-2
4.255443750E-1,1.370718911E-2,2.981610378E-2,-4.114685655E-3,3.307291514E-2
4.355143750E-1,1.487506080E-2,-2.085024368E-2,-5.889958799E-2,6.422742063E-2
4.454853750E-1,-1.610981002E-3,-2.388187882E-2,5.361896753E-4,2.394215728E-2
4.554563750E-1,-1.481582120E-2,-3.520408917E-2,2.732520819E-2,4.696278798E-2
4.654273750E-1,-2.714332324E-2,-6.435417225E-2,4.049606144E-2,8.073506347E-2
4.753973750E-1,-2.622366585E-2,-6.566918821E-2,-1.143013716E-2,7.162940015E-2
4.853683750E-1,6.028406247E-3,-2.384793756E-2,-2.516817033E-2,3.519236573E-2
4.953393750E-1,-1.097303107E-3,-1.034990518E-2,2.935302258E-4,1.041204933E-2
5.053103750E-1,7.656344175E-3,6.789119868E-3,-1.168332160E-2,1.553099347E-2
5.152803750E-1,2.463647570E-2,2.490236870E-2,-1.826553226E-2,3.950586755E-2
5.252513750E-1,1.300713122E-2,4.024588741E-2,-2.111955822E-2,4.727528588E-2
5.352223750E-1,-6.446372531E-3,3.509597050E-2,1.019169688E-3,3.569764097E-2
5.451933750E-1,-7.086935006E-3,1.651360595E-2,-8.874903917E-3,2.004214930E-2
5.551633750E-1,-4.726523682E-3,-3.605863689E-3,-8.570263982E-3,1.043032616E-2
5.651343750E-1,-1.991667632E-2,-4.413084601E-2,7.903681397E-3,4.905786119E-2
5.751053750E-1,-2.018586751E-2,-3.213598659E-2,2.735678315E-2,4.678230933E-2
5.850763750E-1,-9.925721660E-3,-3.206950649E-2,1.895082593E-3,3.362386853E-2
5.950463750E-1,1.795541056E-2,7.170541054E-3,-2.324443638E-2,3.023437200E-2
6.050173750E-1,1.331326950E-2,4.949846207E-2,1.444262266E-3,5.127793664E-2
6.149883750E-1,-1.179065455E-2,4.989340038E-2,-3.523356736E-2,6.220751727E-2
6.249593750E-1,4.508736826E-2,-2.192106987E-2,-9.087917984E-2,1.037903146E-1
6.349293750E-1,5.310412019E-2,-5.620291152E-2,-3.695381820E-2,8.569947214E-2
6.449003750E-1,-3.651235342E-2,-5.139353553E-2,1.861519575E-1,1.965375250E-1
6.548713750E-1,-6.332607642E-2,-7.216743650E-2,4.356818855E-2,1.054348989E-1
6.648423750E-1,-3.892359897E-2,-6.442691070E-2,-7.002216160E-2,1.028055275E-1
6.748123750E-1,-5.738161426E-2,-1.470735078E-2,-1.072180545E-1,1.224935388E-1
6.847833750E-1,-1.493985526E-2,6.461949879E-3,-9.991722107E-3,1.909949167E-2
6.947543750E-1,4.153189570E-2,3.240109387E-2,6.098412037E-2,8.058406903E-2
7.047253750E-1,7.030096415E-2,6.202673831E-2,4.177133918E-2,1.026371599E-1
7.146953750E-1,5.223803792E-2,4.575981634E-2,-4.043232679E-2,8.035886041E-2
7.246663750E-1,2.831371654E-2,3.830397227E-2,-9.404076934E-2,1.054159719E-1
7.346373750E-1,-4.819483448E-2,-7.235061424E-4,-2.220947921E-2,5.307095720E-2
7.446083750E-1,-4.595878612E-2,-2.477118094E-2,-9.333325624E-3,5.303708508E-2
7.545783750E-1,-4.691586569E-3,-5.769833692E-2,1.687623382E-2,6.029855998E-2
7.645493750E-1,-9.626380764E-3,-7.531162597E-2,2.271526337E-2,7.924955144E-2
7.745203750E-1,2.237480924E-2,-5.477942971E-2,3.259413421E-2,6.755587015E-2
7.844913750E-1,-2.187282577E-2,-8.934362791E-5,2.614173174E-2,3.408546065E-2
7.944613750E-1,-2.540889289E-2,4.175231745E-3,-5.138299227E-2,5.747396187E-2
8.044323750E-1,1.739338350E-2,2.799245315E-2,-8.245743513E-2,8.879941346E-2
8.144033750E-1,7.067419924E-3,7.739979459E-2,2.786958396E-2,8.256748959E-2
8.243743750E-1,1.302927755E-2,3.688545603E-2,4.455578327E-4,3.912157284E-2
8.343443750E-1,7.748309914E-2,-1.614930614E-2,-7.497592270E-2,1.090221066E-1
8.443153750E-1,3.311460949E-3,-1.431116081E-2,5.207705677E-2,5.410910218E-2
8.542863750E-1,-9.275452808E-2,-1.479096597E-2,9.525172770E-2,1.337724440E-1
8.642573750E-1,-4.678835984E-2,-4.461859973E-2,-3.618140101E-2,7.408821659E-2
8.742273750E-1,2.231878560E-2,-6.898621771E-2,-1.257788712E-1,1.451810968E-1
8.841983750E-1,-4.092466235E-3,-5.978078166E-2,-2.722931385E-2,6.581736601E-2
8.941693750E-1,-1.827912703E-3,-6.168480410E-2,1.058673477E-1,1.225408162E-1
9.041403750E-1,2.649395339E-2,-3.269799081E-2,4.896049082E-2,6.456173659E-2
9.141103750E-1,-1.689169239E-2,4.582097456E-2,4.560652792E-2,6.681950591E-2
9.240813750E-1,2.329395499E-2,3.141958390E-2,-1.598798329E-1,1.645945307E-1
9.340523750E-1,3.938384794E-2,5.837484607E-2,-1.183733726E-1,1.377351279E-1
9.440233750E-1,-1.938640695E-2,6.040914264E-2,3.477105260E-2,7.234724174E-2
9.539933750E-1,-1.527036913E-3,1.803945058E-2,7.485137701E-2,7.700962446E-2
9.639643750E-1,9.485937953E-3,2.829471309E-2,3.467691243E-2,4.574999522E-2
9.739353750E-1,1.109655350E-3,-2.032354660E-2,-6.847615778E-2,7.143711967E-2
9.839063750E-1,1.834205769E-2,-3.295154527E-2,-5.990472436E-2,7.078708510E-2
9.938763750E-1,-4.196144678E-3,-4.408293082E-2,1.196808100E-2,4.587098628E-2
1.003847375E0,-3.734996706E-2,-2.525154797E-2,1.168811631E-1,1.252751652E-1
1.013818375E0,1.663715579E-3,5.446841265E-3,3.183341146E-2,3.233886384E-2
1.023789375E0,1.519906964E-2,6.269160784E-3,-8.894959867E-2,9.045631652E-2
1.033759375E0,-4.294447336E-2,7.786581768E-2,2.373969555E-3,8.895475865E-2
1.043730375E0,3.897362921E-2,9.698913647E-3,-1.027689081E-1,1.103379408E-1
1.053701375E0,5.679674651E-2,7.267837808E-2,3.792328656E-2,9.973060072E-2
1.063672375E0,-4.403461363E-2,3.231889024E-2,1.582198083E-1,1.673829908E-1
1.073642375E0,5.701108351E-3,4.866252037E-2,-7.263177395E-2,8.761231712E-2
1.083613375E0,-1.159024123E-2,1.178367443E-1,-1.604475975E-2,1.194875153E-1
1.093584375E0,-5.663682517E-2,8.013912376E-2,-1.407272780E-1,1.715639120E-1
1.103555375E0,6.204922725E-2,5.316392168E-2,-8.096814930E-2,1.150319537E-1
1.113525375E0,1.187660496E-1,-9.727377710E-2,-1.231423616E-1,1.968034641E-1
1.123496375E0,8.675831806E-2,-2.141509842E-1,6.019883931E-2,2.387709154E-1
1.133467375E0,3.530322231E-2,-2.667552040E-1,1.804579389E-1,3.239903148E-1
1.143438375E0,-4.128280431E-2,-3.337318068E-1,1.056708813E-1,3.524876224E-1
1.153408375E0,-1.439845791E-1,-3.288510263E-1,1.601201534E-2,3.593479388E-1
1.163379375E0,-1.714281569E-1,-1.960348118E-1,3.538910329E-2,2.628110519E-1
1.173350375E0,-1.561656815E-1,-9.415643457E-2,-3.514235079E-2,1.857098249E-1
1.183320375E0,4.578369856E-4,2.783677103E-2,-6.056195140E-2,6.665467271E-2
1.193291375E0,1.409019270E-1,1.542541170E-1,-1.702241421E-2,2.096126147E-1
1.203262375E0,2.141176185E-1,2.686177980E-1,1.245416003E-1,3.653936045E-1
1.213233375E0,1.690795496E-1,3.430232517E-1,6.568469703E-2,3.880300565E-1
1.223203375E0,4.547832772E-2,3.475339401E-1,-5.840783715E-2,3.553302594E-1
1.233174375E0,-3.785074454E-2,3.112847479E-1,-1.847872174E-1,3.639741596E-1
1.243145375E0,-1.300445612E-1,2.892450938E-1,-2.241764009E-2,3.179258762E-1
1.253116375E0,-1.140537785E-1,2.771770071E-1,-3.649305761E-2,3.019389026E-1
1.263086375E0,-6.664908562E-2,2.236526366E-1,-7.047649026E-2,2.437817428E-1
1.273057375E0,2.064597029E-2,1.621706623E-1,-1.237878942E-1,2.050585833E-1
1.283028375E0,4.697748072E-2,9.500678418E-2,9.846477270E-2,1.446668041E-1
1.292999375E0,8.744551208E-2,1.930680076E-1,3.483502114E-1,4.077619930E-1
1.302969375E0,8.261636976E-2,2.310396068E-1,2.231759423E-1,3.316809697E-1
1.312940375E0,3.826779719E-2,1.990764785E-1,-3.154719025E-1,3.749911864E-1
1.322911375E0,-4.602566365E-2,1.538631941E-1,-2.643099350E-1,3.092765525E-1
1.332881375E0,-2.694484681E-2,1.491942107E-1,-4.673854887E-2,1.586487606E-1
1.342852375E0,-2.704245877E-2,1.791578836E-1,2.329396230E-1,2.951096572E-1
1.352823375E0,-3.015080206E-2,1.845869868E-1,1.759245926E-1,2.567701089E-1
1.362794375E0,-6.178639490E-2,2.081836814E-1,-1.594407070E-1,2.694055360E-1
1.372764375E0,-1.011637378E-1,2.028533596E-1,-2.533253556E-1,3.399372341E-1
1.382735208E0,-9.544556290E-2,1.644174915E-1,-2.060131949E-1,2.803290985E-1
1.392706208E0,-5.025645308E-2,1.918559347E-1,1.991041249E-1,2.810282251E-1
1.402677208E0,-1.529079784E-2,1.309190306E-1,2.544912905E-1,2.865997522E-1
1.412647208E0,4.499728460E-2,4.002589506E-2,4.172982395E-2,7.326804285E-2
1.422618208E0,3.798497468E-4,1.531889462E-1,1.078706038E-1,1.873581188E-1
1.432589208E0,-8.974617217E-2,2.037385915E-1,-7.825328708E-3,2.227667499E-1
1.442560208E0,-2.131398910E-1,1.827398879E-1,-2.456251574E-1,3.730337755E-1
1.452530208E0,-2.797346340E-1,2.849153402E-1,1.196088892E-1,4.168147106E-1
1.462501208E0,-9.753108200E-2,3.330461111E-1,-1.213221234E-1,3.676290001E-1
1.472472208E0,3.562792551E-2,1.943788438E-1,-5.840134674E-1,6.165421430E-1
1.482443208E0,8.426119152E-2,2.862991569E-1,1.485245401E-1,3.333567078E-1
1.492413208E0,3.261419747E-2,3.802382943E-1,6.955379963E-1,7.933586519E-1
1.502384208E0,2.809254561E-2,2.233447807E-1,1.683506942E-1,2.810943585E-1
1.512355208E0,-7.123396050E-2,9.164457123E-2,-3.045013565E-1,3.258743326E-1
1.522325208E0,-2.255676728E-2,-2.881997578E-2,-7.139456159E-1,7.148830262E-1
1.532296208E0,-4.180996735E-2,-1.151837530E-2,1.321002960E-1,1.390368100E-1
1.542267208E0,7.292201512E-2,2.416168362E-1,1.034768890E0,1.065102329E0
1.552238208E0,-6.431717947E-2,1.368491944E-1,1.461172414E-1,2.102727986E-1
1.562208208E0,8.089191623E-2,1.497088479E-1,-4.208872604E-1,4.539849417E-1
1.572179208E0,-6.450260930E-2,3.154866302E-1,-4.184080410E-1,5.279750839E-1
1.582150208E0,-1.237900139E-1,4.567845964E-1,1.148551029E-1,4.869987985E-1
1.592121208E0,-3.594659876E-2,3.758351582E-1,6.744880199E-2,3.835277891E-1
1.602091208E0,-9.870048858E-2,1.046711353E-1,-6.049751508E-1,6.218462560E-1
1.612062208E0,-1.209619349E-1,-8.570501525E-3,-3.205513787E-1,3.427220880E-1
1.622033208E0,1.306237279E-1,1.299187730E-1,4.019457901E-1,4.421559272E-1
1.632003208E0,-2.790031839E-2,4.838717133E-2,5.156519151E-1,5.186681440E-1
1.641974208E0,5.016344581E-2,-1.121179299E-1,-4.721392751E-2,1.315901077E-1
1.651945208E0,-1.530552551E-2,-1.044636596E-1,1.360506749E-1,1.722112117E-1
1.661916208E0,4.086249914E-2,-8.501456872E-2,-2.143957633E-1,2.342280172E-1
1.671886208E0,2.107360641E-1,4.096670292E-2,-5.504638982E-1,5.908455489E-1
1.681857208E0,6.270590611E-3,2.744790835E-2,4.809925443E-1,4.818158732E-1
1.691828208E0,1.484871179E-2,6.461253695E-2,7.848892987E-1,7.876842485E-1
1.701799208E0,1.312319845E-1,1.522074819E-1,-7.515432125E-1,7.779499673E-1
1.711769208E0,1.751813750E-1,3.745214259E-2,-1.112345654E0,1.126678318E0
1.721740208E0,-4.029261123E-1,-1.143585281E-1,5.814231509E-1,7.165753312E-1
1.731711208E0,-2.337465022E-1,4.214815111E-2,9.701033628E-1,9.987564410E-1
1.741682208E0,1.222928708E-1,1.138949535E-1,-4.029421556E-1,4.362224060E-1
1.751652208E0,-1.243114028E-1,2.332580861E-2,-7.394804066E-1,7.502190947E-1
1.761623208E0,-1.008826329E-1,1.758556503E-1,2.154120094E-1,2.958121856E-1
1.771594208E0,5.072057582E-3,3.733949324E-1,6.790313065E-1,7.749406535E-1
1.781564208E0,-7.240022421E-3,-1.244860701E-1,-1.141095244E0,1.147888303E0
1.791535208E0,3.147487481E-1,-3.996074885E-1,-4.172163785E-1,6.578924120E-1
1.801506208E0,3.634923803E-1,-1.257610463E-1,2.015872035E0,2.052238440E0
1.811477208E0,-1.360519174E-2,3.159820264E-2,1.490223720E0,1.490620771E0
1.821447208E0,-3.418204795E-1,-1.824412140E-2,-1.809281135E0,1.841377830E0
1.831418208E0,-1.736114706E-1,-5.778229014E-2,-1.795008667E0,1.804310353E0
1.841389208E0,2.406567782E-1,4.250969633E-1,6.712381375E-1,8.301709164E-1
1.851360208E0,-1.412996108E-1,5.845603648E-1,1.295589792E0,1.428365957E0
1.861330208E0,3.469109192E-2,1.830949053E-1,-6.964747202E-1,7.209745156E-1
1.871301208E0,2.466691777E-2,1.159810185E-2,-6.182360512E-1,6.188366406E-1
1.881272208E0,-1.455568589E-1,3.120918098E-1,4.282734632E-1,5.495509587E-1
1.891242208E0,-3.274396911E-1,3.121953604E-2,-3.750930369E-2,3.310564281E-1
1.901213208E0,2.091840669E-1,-5.768082359E-1,-2.138198125E-1,6.497573602E-1
1.911184208E0,3.364057385E-1,-3.658947819E-1,1.127719738E0,1.232395886E0
1.921155208E0,2.010516132E-1,9.886375381E-2,5.900852162E-1,6.311864664E-1
1.931125208E0,-3.916706242E-2,-3.105068398E-2,-3.826721978E-1,3.859225502E-1
1.941096208E0,-2.886419900E-1,1.148588122E-1,-5.890257007E-1,6.659264383E-1
1.951067208E0,3.800606851E-1,5.414493920E-1,-8.923687238E-1,1.110826498E0
1.961038208E0,2.178023511E-1,5.558639846E-1,-5.634511489E-1,8.209140215E-1
1.971008208E0,-4.502257015E-1,-3.895604189E-2,9.668955803E-1,1.067289941E0
1.980979208E0,-8.336108577E-2,-1.298510366E-1,1.318376976E0,1.327376440E0
1.990950208E0,4.384552930E-2,-1.983017042E-1,-2.264562303E-1,3.041848460E-1
2.000920208E0,-4.276280037E-1,-2.527210276E-1,-1.196643793E0,1.295642696E0
2.010891208E0,2.838829412E-1,-1.035235918E-1,-1.664982963E-1,3.450048420E-1
2.020862208E0,3.152186084E-1,6.279048974E-2,6.648225725E-1,7.384405660E-1
2.030833208E0,5.591034517E-2,-2.929073146E-2,2.086625683E-1,2.179999566E-1
2.040803208E0,3.411788207E-2,-6.503093264E-2,3.363745290E-1,3.442976559E-1
2.050774208E0,-6.593649276E-3,9.210337666E-2,4.609716779E-1,4.701291270E-1
2.060745208E0,-2.046792258E-1,5.718508386E-2,-3.975545311E-1,4.507918860E-1
2.070715208E0,-1.332189780E-1,2.641628775E-1,-1.105637729E0,1.144536635E0
2.080686208E0,-6.783603385E-2,3.038658372E-1,-1.680086321E-1,3.537839383E-1
2.090657208E0,2.085244644E-1,2.248217142E-1,2.343417853E-1,3.859317657E-1
2.100628208E0,-9.864695001E-2,1.198353775E-1,3.663216287E-1,3.978483054E-1
2.110598208E0,-7.828661621E-2,2.324266029E-1,3.936719799E-1,4.638195207E-1
2.120569208E0,1.472495547E-1,1.732876263E-1,-1.120045268E0,1.142896511E0
2.130540208E0,1.973862860E-2,-4.702630498E-2,-2.088742375E-1,2.150105438E-1
2.140511208E0,1.226764116E-2,1.486772438E-1,1.025549585E0,1.036343268E0
2.150481208E0,-2.843219575E-2,2.142416891E-1,1.560428900E-1,2.665657041E-1
2.160452208E0,-1.705527921E-1,1.632462576E-1,-7.946219891E-1,8.289521706E-1
2.170423208E0,-9.530614335E-2,3.386861709E-2,-4.680783838E-1,4.788817365E-1
2.180393208E0,-1.363458131E-1,2.153143060E-1,6.302134877E-1,6.797936976E-1
2.190364208E0,-2.365564182E-1,3.520190468E-1,1.247882944E0,1.317986415E0
2.200335208E0,-7.268520288E-2,-8.218217745E-2,-1.404252108E0,1.408531516E0
2.210306208E0,-5.178530263E-1,-2.903295147E-1,-1.034097045E0,1.192400806E0
2.220276208E0,-1.983485550E-1,4.021146649E-2,6.527439791E-1,6.833987222E-1
2.230247208E0,-3.375401349E-1,3.942789209E-1,7.798109919E-1,9.367467071E-1
2.240218208E0,4.121966534E-1,-4.551078890E-2,-7.118850571E-1,8.238674939E-1
2.250188208E0,8.248428847E-1,6.947272433E-2,-8.460991216E-1,1.183670548E0
2.260159208E0,4.949310639E-1,4.779763495E-2,1.222139407E0,1.319418850E0
2.270130208E0,3.182186320E-2,2.890338448E-1,1.375991346E0,1.406380239E0
2.280101208E0,3.083625288E-1,6.001823800E-2,-1.940889680E-1,3.692697734E-1
2.290071208E0,-1.706163441E-1,-8.706944475E-2,-1.461637267E0,1.474135179E0
2.300042208E0,-2.933812679E-1,-1.215869201E-1,-9.593509179E-1,1.010549420E0
2.310013208E0,-3.158637756E-1,2.814983462E-2,9.328109908E-1,9.852404186E-1
2.319983208E0,-2.502727071E-1,-1.481023620E-1,1.327955884E0,1.359425455E0
2.329954208E0,1.644658772E-1,-2.361710867E-1,-2.591521060E-1,3.872797710E-1
2.339925208E0,3.337004877E-1,-7.176417505E-2,-1.115311947E0,1.166373376E0
2.349896208E0,-4.265737507E-2,-7.113351630E-2,2.391663229E-1,2.531405910E-1
2.359866208E0,-2.083995898E-1,-7.276322210E-2,7.287016493E-1,7.614006627E-1
2.369837208E0,-3.531181041E-2,-1.227383008E-1,-2.599379718E-2,1.303353057E-1
2.379808708E0,-1.317611941E-1,-1.981929094E-1,-8.035939568E-1,8.380958710E-1
2.389779708E0,-2.250661644E-1,-2.317205334E-1,-3.030693734E-1,4.429449503E-1
2.399749708E0,1.389068205E-2,-5.154638540E-2,1.504646462E-1,1.596545980E-1
2.409720708E0,-6.023165680E-2,-6.808083119E-2,6.274214423E-1,6.339720170E-1
2.419691708E0,-2.606303187E-1,-7.841945764E-2,3.134171909E-1,4.151001204E-1
2.429661708E0,3.340360447E-1,4.937444628E-2,-1.123803858E0,1.173436418E0
2.439632708E0,8.238525856E-1,5.309506432E-1,-4.953872198E-1,1.098203153E0
2.449603708E0,-6.741803102E-3,3.812742016E-1,6.495087147E-1,7.531779598E-1
2.459574708E0,-8.375646718E-2,-3.805205778E-2,4.061183631E-1,4.164075285E-1
2.469544708E0,-1.204642638E-1,3.097696795E-2,-1.005721092E-1,1.599561207E-1
2.479515708E0,1.849417301E-1,-5.174997814E-1,-9.631931233E-1,1.108941144E0
2.489486708E0,-8.973897278E-2,-2.631030697E-1,9.850476766E-1,1.023520998E0
2.499456708E0,-3.262633775E-1,1.723073406E-1,1.736640590E0,1.775403659E0
2.509427708E0,-2.039545365E-2,-5.503915389E-1,-1.746490810E0,1.831277415E0
2.519398708E0,-3.272452712E-2,-3.103690739E-1,-1.250931682E0,1.289274963E0
2.529368708E0,-2.440324124E-1,4.035543956E-1,1.379161121E0,1.457564190E0
2.539339708E0,-1.577978586E-1,3.560800843E-1,3.195959437E-1,5.038201642E-1
2.549310708E0,7.298311852E-3,-2.223456011E-1,-1.705616434E0,1.720063444E0
2.559281708E0,4.857934007E-1,-2.902383712E-1,8.786961794E-2,5.726732140E-1
2.569251708E0,5.234481539E-1,2.100140791E-1,2.188386531E0,2.259898116E0
2.579222708E0,2.954107634E-1,-5.088669613E-2,8.748288310E-1,9.247607574E-1
2.589193708E0,2.445662266E-1,-1.044048951E-1,-1.528955677E0,1.551908013E0
2.599163708E0,-2.552199997E-2,-6.345782150E-2,-1.827167183E0,1.828446932E0
2.609134708E0,-3.475791829E-1,-1.372647579E-1,1.262489873E-1,3.944511490E-1
2.619105708E0,-3.283700928E-1,-3.662156845E-1,1.783090287E0,1.849689654E0
2.629076708E0,1.709768980E-1,-3.968405495E-1,9.045619226E-1,1.002470844E0
2.639046708E0,1.527822632E-1,-2.512565559E-1,-3.985432953E-1,4.952868210E-1
2.649017708E0,9.401021764E-2,-2.820338232E-2,-6.565288818E-1,6.638249200E-1
2.658988708E0,-3.715722822E-3,-6.327438338E-2,-7.140268922E-2,9.547668938E-2
2.668958708E0,-2.516787797E-3,-1.706347948E-2,5.654678535E-1,5.657308459E-1
2.678929708E0,-3.225861367E-2,2.462625952E-1,1.759520745E-1,3.043764388E-1
2.688900708E0,-9.797631092E-3,1.091192127E-1,-6.286774242E-1,6.381522544E-1
2.698871708E0,-2.685113056E-1,4.121821999E-2,-9.385517871E-1,9.770755959E-1
2.708841708E0,-1.267068243E-1,-2.670258570E-1,-3.743580419E-1,4.769710381E-1
2.718812708E0,-1.914395581E-1,-1.252156199E-1,9.136876720E-1,9.418881132E-1
2.728783708E0,1.064682222E-1,7.537249183E-2,1.096354689E0,1.104087904E0
2.738753708E0,2.233567674E-1,8.746044075E-2,-7.729334968E-1,8.092983163E-1
2.748724708E0,2.519020337E-1,3.089507952E-2,-1.097203705E0,1.126172771E0
2.758695708E0,-3.832868133E-2,1.380748896E-1,6.246872842E-1,6.409118239E-1
2.768666708E0,-1.629173152E-2,3.931708735E-1,9.252189660E-1,1.005424732E0
2.778636708E0,-5.266831990E-2,-1.298323758E-2,-9.314684701E-1,9.330466372E-1
2.788607708E0,9.517988004E-2,-9.895497951E-2,-1.356739388E0,1.363668972E0
2.798578708E0,-1.386590447E-1,2.407283335E-1,1.302988858E0,1.332274906E0
2.808548708E0,-2.797725313E-1,3.174580555E-1,1.842222009E0,1.890194228E0
2.818519708E0,-1.192679965E-1,-2.897745591E-1,-1.430209653E0,1.464135855E0
2.828490708E0,-4.995128324E-1,-4.915593766E-1,-1.894654577E0,2.020113773E0
2.838460708E0,-7.586358120E-1,-5.264865499E-1,1.737944520E-1,9.396387040E-1
2.848431708E0,-8.418882492E-1,-4.482455785E-1,1.896088899E0,2.122463907E0
2.858402708E0,-2.427552708E-1,-5.474588679E-1,1.831587678E-1,6.262495252E-1
2.868373708E0,5.034178954E-1,7.701608934E-2,-1.036911895E0,1.155226096E0
2.878343708E0,8.507185681E-1,4.652708798E-1,-4.639578509E-1,1.074921374E0
2.888314708E0,7.755144578E-1,4.674630009E-1,1.937299490E-1,9.259997973E-1
2.898285708E0,1.439374140E0,2.789882552E-1,-7.352347434E-2,1.468004790E0
2.908255708E0,9.939012381E-1,2.703205072E-1,3.099679184E-1,1.075636071E0
2.918226708E0,1.550692189E-1,1.313307294E-1,9.620839065E-1,9.833105645E-1
2.928197708E0,-5.098891186E-1,-1.938579665E-1,9.676902169E-1,1.110852006E0
2.938168708E0,-6.219063485E-1,-5.749594925E-1,-4.361251044E-1,9.526547281E-1
2.948138708E0,-4.717073120E-1,-2.551110405E-1,-7.028861922E-1,8.841031786E-1
2.958109708E0,-5.535497297E-1,1.503810493E-1,-5.290730292E-1,7.803525059E-1
2.968080708E0,-5.059902683E-1,-6.688561463E-3,-6.138488853E-1,7.955383978E-1
2.978050708E0,-4.743794896E-1,-2.002389964E-1,-1.528801310E-1,5.371255815E-1
2.988021708E0,-5.629315507E-2,-3.921711093E-2,4.475675207E-1,4.527953033E-1
2.997992708E0,-4.860088706E-2,-1.217706140E-1,7.973029375E-2,1.534504754E-1
3.007962708E0,5.646765791E-3,-4.507753032E-1,-3.055398220E-1,5.445960363E-1
3.017933708E0,2.186623304E-1,-2.920844286E-1,-1.301180899E-2,3.650970218E-1
3.027904708E0,2.228089199E-1,-3.724696836E-1,4.541579175E-1,6.282013165E-1
3.037875708E0,-6.771707956E-2,-4.910996027E-1,7.109296221E-1,8.667094958E-1
3.047845708E0,3.353781635E-1,-2.185342398E-1,-1.977002084E-2,4.007824600E-1
3.057816708E0,6.879399781E-1,1.845452888E-1,-7.094397515E-1,1.005297537E0
3.067787708E0,7.639108045E-1,5.434329868E-1,1.052118748E-1,9.433709064E-1
3.077757708E0,4.891524799E-2,9.845267627E-1,1.249829482E0,1.591778685E0
3.087728708E0,-3.778009555E-1,5.789557721E-1,-1.314735330E0,1.485413187E0
3.097699708E0,-3.328750435E-2,-3.557329059E-1,-3.551129841E0,3.569058294E0
3.107670708E0,-5.647971779E-3,-5.224996624E-1,-1.768236605E0,1.843827131E0
3.117640708E0,2.903670283E-1,-8.642396696E-1,3.671650311E0,3.783152022E0
3.127611708E0,3.599431570E-1,-6.339625762E-1,5.383020405E0,5.432161292E0
3.137582708E0,7.143031731E-2,-6.784241462E-1,2.669264470E0,2.755056156E0
3.147552708E0,5.937167756E-2,-5.781594909E-1,-2.305833705E0,2.377953420E0
3.157523708E0,-2.133402312E-1,-2.907746706E-1,-3.106125739E0,3.126992336E0
3.167494708E0,-5.744005718E-1,3.693076555E-1,-2.205695459E0,2.308986059E0
3.177464708E0,-3.238093011E-1,5.759549079E-1,-2.247245774E0,2.342368478E0
3.187435708E0,-1.811420631E-1,6.382925856E-1,-6.499992961E-1,9.288320391E-1
3.197406708E0,-5.957413740E-2,3.082500064E-1,2.740604010E0,2.758528137E0
3.207377708E0,4.001397313E-1,-3.576018222E-1,2.537116812E0,2.593251354E0
3.217347708E0,3.494721093E-1,-5.807791897E-1,4.105698484E-1,7.924662913E-1
3.227318708E0,2.572151428E-1,-2.184815783E-1,-4.047085994E-1,5.269562413E-1
3.237289708E0,-7.732036382E-2,2.411380406E-1,-7.215347171E-2,2.633099253E-1
3.247259708E0,-3.579626685E-1,3.890154401E-1,-5.678891855E-1,7.758662331E-1
3.257230708E0,-3.084896326E-1,1.783686008E-1,-1.374397395E0,1.419841333E0
3.267201708E0,-9.872442562E-2,3.163891479E-1,-9.261896038E-1,9.837051323E-1
3.277171708E0,3.311759157E-1,7.531658697E-2,1.036490895E0,1.090716944E0
3.287142708E0,3.692706354E-1,-1.474236555E-2,1.621691932E0,1.663268728E0
3.297113708E0,3.800771670E-1,-4.248801139E-2,4.274846739E-1,5.735913444E-1
3.307084708E0,1.054491622E-1,-3.542409979E-2,-8.465727460E-1,8.538499909E-1
3.317054708E0,-1.843515633E-1,-1.830593652E-1,-7.035311401E-1,7.499681961E-1
3.327025708E0,-2.145269236E-1,-1.944783561E-1,2.645391458E-1,3.922047828E-1
3.336996708E0,-2.197969460E-1,1.033007033E-2,3.916868502E-1,4.492616125E-1
3.346966708E0,-2.583056850E-1,-1.835260278E-1,-4.900949049E-1,5.836065846E-1
3.356937708E0,-6.794318408E-2,-3.369297587E-1,-7.661361086E-1,8.397038022E-1
3.366908708E0,2.710845921E-1,-1.119347659E-1,4.054184514E-1,5.003802241E-1
3.376878375E0,1.308027258E-1,-1.316717933E-2,1.237457358E0,1.244420926E0
3.386849375E0,2.490401506E-1,-1.215659432E-2,5.308552605E-1,5.864947459E-1
3.396820375E0,1.168818940E-1,6.518191414E-2,-9.177403772E-1,9.274467419E-1
3.406790375E0,-7.938253060E-2,3.696649935E-2,-1.237978930E0,1.241072093E0
3.416761375E0,-1.272867219E-1,6.930986110E-2,1.708603191E-1,2.240513671E-1
3.426732375E0,-6.107435022E-2,2.552675083E-1,8.571515286E-1,8.964375717E-1
3.436703375E0,-2.926842067E-2,1.664192858E-1,-1.081021535E-1,2.005943537E-1
3.446673375E0,-4.186591789E-2,-2.742524308E-1,-1.407273365E0,1.434358907E0
3.456644375E0,-1.483921006E-2,-1.588565153E-1,-1.766677737E-2,1.605232371E-1
3.466615375E0,-1.484703437E-1,2.324313218E-2,2.233674971E0,2.238724539E0
3.476585375E0,-2.891532559E-1,-6.761320012E-2,9.725948614E-1,1.016917850E0
3.486556375E0,-1.896370808E-1,-4.216089530E-1,-2.201107734E0,2.249131296E0
3.496527375E0,-2.396752500E-1,-1.553545813E-1,-2.239982362E0,2.258118742E0
3.506497375E0,-5.021881529E-1,1.946854571E-1,7.532751578E-1,9.260231268E-1
3.516468375E0,1.018332075E-1,-8.915314573E-2,1.823399237E0,1.828415452E0
3.526439375E0,6.692460642E-1,-2.095733270E-1,5.957435668E-2,7.038184267E-1
3.536409375E0,8.537383626E-1,-3.127555419E-1,-1.341789812E0,1.620828529E0
3.546380375E0,3.980902457E-1,1.675868285E-1,1.473621136E-1,4.563735108E-1
3.556351375E0,-2.586295111E-1,-2.870010055E-1,2.557867996E0,2.586879874E0
3.566322375E0,2.321293451E-2,-3.012190037E-1,2.344680852E-1,3.824225562E-1
3.576292375E0,-2.163844013E-1,-2.951082659E-2,-2.073411561E0,2.084880955E0
3.586263375E0,-5.332588316E-1,-1.699789793E-1,-1.839117723E0,1.922397418E0
3.596234375E0,-4.471998040E-1,2.326747807E-2,2.818164986E-1,5.291026168E-1
3.606204375E0,-9.175045151E-2,-1.426534513E-1,1.744789855E0,1.753014487E0
3.616175375E0,2.132037353E-1,-2.442581880E-1,4.822578818E-1,5.811114864E-1
3.626146375E0,4.974998553E-1,-2.669891475E-1,-7.594977647E-1,9.463752773E-1
3.636116375E0,6.121507808E-1,3.160431937E-2,-1.295865780E-1,6.265142398E-1
3.646087375E0,2.399791225E-1,6.149801753E-2,1.008081028E0,1.038074826E0
3.656058375E0,1.182346839E-1,-1.262548345E-1,1.644038236E-1,2.386385152E-1
3.666029375E0,-2.387166721E-1,-1.821273007E-1,-1.026379305E0,1.069397251E0
3.675999375E0,-7.051256027E-2,-2.168079407E-1,-1.022096804E0,1.047215155E0
3.685970375E0,-2.912857355E-1,-9.291420274E-2,7.447961104E-1,8.051097284E-1
3.695941375E0,-2.322931768E-1,-1.171562563E-1,9.934594810E-1,1.026960296E0
3.705911375E0,1.273322206E-1,-2.792887839E-1,-5.102654600E-1,5.954717112E-1
3.715882375E0,2.608147984E-1,-2.315342447E-1,-7.232859582E-1,8.029788558E-1
3.725853375E0,-3.028211225E-1,-1.531361842E-1,6.525925362E-1,7.355462878E-1
3.735823375E0,-2.263941767E-1,-2.049452741E-1,7.023400623E-1,7.658579840E-1
3.745794375E0,-6.702886228E-2,-2.572053121E-1,-4.505402452E-1,5.231003283E-1
3.755765375E0,2.995324657E-1,2.495135923E-1,-7.843496007E-1,8.758887069E-1
3.765735375E0,1.145308748E-2,1.793787987E-1,-6.576755208E-1,6.817954365E-1
3.775706375E0,-8.793963835E-2,-1.885173572E-1,-8.241358101E-2,2.237502454E-1
3.785677375E0,6.384552844E-2,9.844821777E-2,8.429983431E-1,8.511254370E-1
3.795647375E0,-1.343877268E-1,-5.046714928E-2,9.505654764E-1,9.613437050E-1
3.805618375E0,-1.284941354E-1,-2.045536568E-1,-8.254397392E-1,8.600602912E-1
3.815589375E0,1.945187749E-1,-6.956187153E-2,-7.164429617E-1,7.456318965E-1
3.825560375E0,8.947774842E-3,-1.659392659E-1,4.193155289E-1,4.510448042E-1
3.835530375E0,2.582614289E-1,-2.835578725E-1,1.660930842E-1,4.179604591E-1
3.845501375E0,2.503567974E-1,-3.728581214E-1,2.934600592E-1,5.364890596E-1
3.855472375E0,-2.162352608E-1,-9.901506878E-2,1.526978733E0,1.545388535E0
3.865442375E0,-1.835901827E-1,7.201517592E-3,-1.985714436E-3,1.837421021E-1
3.875413375E0,9.678114004E-2,-2.031170873E-1,-3.019412701E0,3.027784041E0
3.885384375E0,7.439357657E-2,-4.130859419E-1,-1.393495570E0,1.455336492E0
3.895354375E0,6.881851226E-2,1.411751930E-1,3.535076310E0,3.538563401E0
3.905325375E0,1.160662074E-1,3.933216951E-1,2.248575431E0,2.285665065E0
3.915296375E0,-9.438352581E-2,-1.046417987E-1,-2.736992769E0,2.740618101E0
3.925266375E0,-4.075901073E-1,-1.563764371E-1,-2.513801039E0,2.551426846E0
3.935237375E0,-2.473697838E-1,-1.321934129E-1,7.534160757E-1,8.039295314E-1
3.945208375E0,-1.536463355E-1,-3.678137285E-1,1.117154989E0,1.186140550E0
3.955178375E0,2.785201308E-1,-4.535295611E-1,2.328367120E-1,5.809263813E-1
3.965149375E0,4.619070862E-1,-2.061635415E-1,9.071352822E-1,1.038631784E0
3.975120375E0,7.083381361E-1,-1.758915193E-1,1.279184843E0,1.472750693E0
3.985091375E0,4.794320321E-1,6.250507709E-2,-9.514144921E-1,1.067216704E0
3.995061375E0,8.334398266E-2,3.355435300E-1,-1.708313754E0,1.742949099E0
4.005032375E0,-1.653283415E-1,1.953027769E-1,1.405378282E-1,2.919375213E-1
4.015003375E0,-6.611809266E-1,-8.148152570E-2,4.672907639E-1,8.137322131E-1
4.024973375E0,-8.955899549E-1,-5.369899399E-1,-5.097281009E-1,1.162007874E0
4.034944375E0,-5.396455991E-1,-2.416572003E-1,-2.706804764E-1,6.502949295E-1
4.044915375E0,-2.237905943E-1,-1.052447837E-1,1.243229730E0,1.267587810E0
4.054885375E0,4.940741179E-1,9.725844643E-2,6.568095481E-1,8.276274656E-1
4.064856375E0,6.958500914E-1,-2.307239120E-2,-1.142879815E0,1.338250334E0
4.074827375E0,1.945279112E-1,-2.658139485E-1,-1.218076762E0,1.261827707E0
4.084797375E0,4.107007530E-1,-8.904508187E-2,4.212497878E-1,5.950256455E-1
4.094768375E0,6.810259379E-1,-1.479466707E-1,1.508296294E0,1.661518058E0
4.104739375E0,4.378653089E-1,-1.106739691E-1,3.752468187E-1,5.871838989E-1
4.114709375E0,-2.029308717E-1,-1.415687837E-1,-1.303473008E-1,2.796660116E-1
4.124680375E0,-3.951709136E-1,-1.156611873E-1,-8.437590659E-2,4.203056683E-1
4.134651375E0,-1.737211059E-1,-1.220095002E-1,-1.051153958E-2,2.125460732E-1
4.144621375E0,-3.625173206E-1,2.167665534E-1,-4.453362232E-1,6.137840810E-1
4.154592375E0,-2.845684176E-1,3.243824013E-1,-5.989823395E-1,7.382296185E-1
4.164563375E0,-3.300256222E-1,2.185730690E-1,-1.058568227E-1,4.097520772E-1
4.174533375E0,-2.085398499E-1,-1.315188544E-1,-3.829341531E-1,4.554389571E-1
4.184504375E0,-1.532561070E-1,-2.254872553E-1,-5.735867125E-1,6.350855481E-1
4.194475375E0,1.806367175E-1,-4.950086034E-3,4.501250929E-1,4.850430149E-1
4.204446375E0,7.197967784E-1,1.893703198E-1,1.537568625E0,1.708240556E0
4.214416375E0,1.287746556E-1,-1.982084228E-1,5.967399323E-1,6.418473632E-1
4.224387375E0,2.498552524E-1,-1.799657495E-1,-9.194559503E-1,9.696466174E-1
4.234358375E0,3.806743139E-1,1.304220355E-1,-7.981326574E-1,8.938336419E-1
4.244328375E0,-7.806665126E-2,2.537234049E-1,5.888748425E-1,6.459439205E-1
4.254299375E0,-2.740030836E-1,1.502739996E-1,-1.518486822E-1,3.474449411E-1
4.264270375E0,-3.008029560E-1,-1.855668340E-1,-1.028566164E0,1.087596350E0
4.274240375E0,-2.972613706E-1,-3.428602972E-1,-2.242307800E-1,5.061590151E-1
4.284211375E0,-1.999923535E-1,-2.840236398E-1,9.692859221E-1,1.029651188E0
4.294182375E0,-4.375566490E-2,-2.656475221E-1,4.459215295E-1,5.208926710E-1
4.304152375E0,-5.183395877E-2,-2.251108591E-1,7.698736489E-2,2.434927360E-1
4.314123375E0,2.173544544E-1,-1.269609406E-1,-3.881258959E-1,4.626053938E-1
4.324094375E0,5.393351484E-1,-1.619470429E-1,-1.295276965E0,1.412392178E0
4.334064375E0,2.327714425E-2,-3.647705451E-1,1.640091366E-1,4.006224818E-1
4.344035375E0,-1.378820594E-1,-2.618603719E-1,2.076749736E0,2.097730150E0
4.354006375E0,-2.388445434E-1,-3.546478088E-1,9.359000748E-1,1.028946420E0
4.363976375E0,-2.171708153E-1,-4.245780230E-1,-1.243008705E0,1.331352809E0
4.373947375E0,-5.273782868E-2,4.008181362E-2,-1.327266498E0,1.328918427E0
4.383918083E0,-4.969219677E-3,2.178727552E-1,-3.793012780E-1,4.374502144E-1
4.393888083E0,1.584072847E-2,-1.044311162E-1,-3.004428041E-1,3.184692532E-1
4.403859083E0,2.956931108E-1,-3.018089512E-1,4.140951347E-1,5.916061523E-1
4.413830083E0,3.564984526E-1,-2.569411276E-1,1.330169055E0,1.400878155E0
4.423800083E0,9.502390556E-2,-1.017769463E-1,1.004219527E0,1.013826883E0
4.433771083E0,-4.629219801E-1,-9.197541400E-2,-2.815153670E-1,5.495517613E-1
4.443742083E0,-5.637687989E-1,2.990951488E-1,-1.381114091E0,1.521436591E0
4.453712083E0,-3.771435458E-1,2.128266812E-1,-1.301228262E0,1.371396164E0
4.463683083E0,2.323861475E-1,8.719920726E-2,-8.086167151E-1,8.458534242E-1
4.473654083E0,7.516259506E-1,-6.293215681E-2,5.496406102E-1,9.332774649E-1
4.483624083E0,7.588297203E-1,-1.455041243E-1,1.978555689E0,2.124070764E0
4.493595083E0,2.806758896E-1,-1.929282044E-1,1.734070739E0,1.767201623E0
4.503566083E0,-1.415476424E-1,-3.640820355E-1,-2.016371387E-1,4.396009546E-1
4.513536083E0,-1.765517065E-1,5.405986130E-3,-1.291068140E0,1.303095035E0
4.523507083E0,-3.722299112E-1,5.329460055E-1,-4.629544687E-1,7.980685382E-1
4.533478083E0,-5.453933755E-1,5.215076457E-1,-6.744500130E-1,1.012080520E0
4.543448083E0,-3.613701699E-1,1.179949389E-1,-1.075622801E0,1.140822342E0
4.553419083E0,-2.192561517E-1,-9.859928607E-2,1.066912204E-1,2.630172918E-1
4.563390083E0,4.300243389E-2,4.165670634E-2,1.406785707E0,1.408059131E0
4.573360083E0,2.587281829E-1,1.797781453E-1,1.132991003E0,1.175980046E0
4.583331083E0,2.186165759E-1,1.374366843E-1,1.025648403E-1,2.778517517E-1
4.593302083E0,1.537649244E-1,1.701185816E-1,-1.123171189E0,1.146340920E0
4.603272083E0,6.085266765E-2,3.697046449E-1,-1.055408977E0,1.119943159E0
4.613243083E0,-3.269160364E-1,2.548048839E-1,2.577364951E-1,4.880857759E-1
4.623214083E0,4.126795969E-1,2.665907328E-1,4.007015026E-1,6.339848284E-1
4.633184083E0,4.621730614E-1,-4.009171735E-2,-1.642284071E-1,4.921201624E-1
4.643155083E0,3.534448173E-2,-4.864908274E-1,7.081726599E-1,8.599017814E-1
4.653126083E0,-3.244707674E-2,-3.349236886E-1,9.780579150E-1,1.034322955E0
4.663096083E0,9.787153613E-2,-1.962146137E-1,-1.638325506E-1,2.737153939E-1
4.673067083E0,5.344472051E-2,9.718982387E-2,-4.199119449E-1,4.343135290E-1
4.683038083E0,-6.325338822E-2,3.351845110E-1,8.462675214E-2,3.514417942E-1
4.693008083E0,-1.652454938E-1,2.779745490E-1,-1.156809636E0,1.201159630E0
4.702979083E0,-4.371871050E-1,-8.027729164E-2,-6.581041217E-1,7.941524056E-1
4.712950083E0,-5.148811790E-1,-2.112023795E-1,6.918840712E-1,8.879260339E-1
4.722920083E0,-8.123975247E-2,-2.227285024E-1,1.920710939E-1,3.051215959E-1
4.732891083E0,5.499605991E-2,-1.373178762E-1,1.726881588E-1,2.273806630E-1
4.742862083E0,1.553651977E-1,-1.627704405E-1,3.150713682E-1,3.871724784E-1
4.752832083E0,2.340704014E-1,-9.135747294E-2,-4.787559843E-1,5.406870011E-1
4.762803083E0,1.872241541E-1,-3.468677229E-1,-7.927614051E-1,8.853478111E-1
4.772774083E0,6.851917136E-2,-7.282459319E-1,4.324834585E-2,7.327396766E-1
4.782744083E0,4.705835868E-1,-3.933931774E-1,8.987585610E-1,1.088105719E0
4.792715083E0,9.986755628E-2,-4.557077951E-1,1.005870196E0,1.108791222E0
4.802686083E0,-3.992991575E-1,-5.458125478E-1,5.490208054E-1,8.710769192E-1
4.812656083E0,-2.549371041E-1,-4.462674654E-1,-8.235534275E-1,9.707666175E-1
4.822627083E0,3.054541237E-1,6.381489451E-2,-1.034858937E0,1.080882779E0
4.832598083E0,3.715462621E-1,2.757254724E-1,-4.618563616E-1,6.537449501E-1
4.842568083E0,2.219957549E-2,-1.054707877E-1,-1.710345662E-1,2.021626351E-1
4.852539083E0,-4.305816151E-1,-5.564251345E-1,5.119453651E-1,8.701135066E-1
4.862510083E0,-3.435794316E-1,-5.226580489E-1,3.502254134E-1,7.168515202E-1
4.872480083E0,-1.366755595E-1,-4.809883051E-1,-1.978890735E-1,5.377639292E-1
4.882451083E0,4.357849427E-2,-2.734014417E-1,2.609179652E-1,3.804282035E-1
4.892422083E0,1.498773300E-1,-1.600527277E-1,3.153409249E-1,3.840833094E-1
4.902392083E0,4.518608388E-1,5.702217038E-2,-3.409844738E-1,5.689465326E-1
4.912363083E0,4.076898754E-1,8.295601990E-2,1.718555152E-2,4.163989421E-1
4.922334083E0,1.253465061E-1,7.921990491E-3,1.305700797E-1,1.811713284E-1
4.932304083E0,1.223767418E-1,9.457993744E-2,-3.366540259E-1,3.704826105E-1
4.942275083E0,-7.369911008E-2,-1.104848574E-1,-4.821035153E-1,5.000622581E-1
4.952246083E0,-5.453503619E-1,-4.121147924E-1,1.168150896E-1,6.934633260E-1
4.962216083E0,-5.031421261E-1,-3.894858486E-1,4.713382065E-1,7.918402176E-1
4.972187083E0,-1.736696139E-1,-2.558119572E-1,4.400480014E-1,5.378132908E-1
4.982158083E0,3.304775755E-1,-9.437360382E-3,-1.889814252E-1,3.808129078E-1
4.992128083E0,3.263104841E-1,4.572692575E-2,-3.658059043E-1,4.923245306E-1
5.002099083E0,2.406686188E-1,3.091209127E-2,9.756839454E-2,2.615273085E-1
5.012070083E0,2.284254994E-1,8.193590918E-2,1.188984525E-1,2.702379396E-1
5.022040083E0,-5.804713704E-3,-1.355091405E-1,-2.849254632E-1,3.155613117E-1
5.032011083E0,-1.392751585E-1,-1.888200055E-1,3.667139769E-2,2.374770634E-1
5.041982083E0,-2.237050422E-1,-3.838021905E-2,4.274495906E-1,4.839732840E-1
5.051952083E0,-3.374851345E-1,-2.025769690E-2,2.050659460E-1,3.954220941E-1
5.061923083E0,-2.727715504E-1,7.450741455E-3,-4.641578257E-2,2.767928054E-1
5.071894083E0,-6.100257564E-2,1.663350493E-1,-3.508148128E-1,3.930136076E-1
5.081864083E0,4.103893887E-1,3.959403341E-1,-3.739960992E-1,6.819540166E-1
5.091835083E0,3.319223128E-1,4.688940338E-1,3.986286646E-1,6.992416242E-1
5.101806083E0,1.949837017E-1,2.496653641E-1,-3.481040436E-1,4.706674655E-1
5.111776083E0,3.050255594E-1,1.802358544E-2,-7.300131798E-1,7.913815035E-1
5.121747083E0,2.136693198E-2,-1.951935436E-1,1.057656062E-1,2.230323490E-1
5.131718083E0,-2.906881500E-1,-3.163167886E-1,8.190452242E-1,9.248734998E-1
5.141688083E0,-3.182756058E-1,-3.497995169E-1,3.690183645E-1,5.998613312E-1
5.151659083E0,-2.667721609E-1,-3.333644555E-1,-7.292647362E-2,4.331483771E-1
5.161630083E0,-3.639027087E-1,-2.937708204E-1,-5.510053504E-1,7.227263468E-1
5.171600083E0,-2.279705130E-1,-1.671329384E-1,-1.084582490E-1,3.027658595E-1
5.181571083E0,2.246112876E-2,-1.531305654E-1,3.257337660E-1,3.606327199E-1
5.191542083E0,4.041595459E-1,-9.244161068E-2,9.355661988E-2,4.250214478E-1
5.201512083E0,7.628999671E-1,1.646404623E-2,1.423089498E-1,7.762340252E-1
5.211483083E0,5.447702450E-1,-1.528530694E-2,7.779018760E-2,5.505084684E-1
5.221454083E0,1.896230109E-1,-1.324675468E-1,-4.764077425E-1,5.295931215E-1
5.231424083E0,-2.722734772E-1,-2.589682659E-1,-7.320246220E-2,3.828263440E-1
5.241395083E0,-3.120436434E-1,-1.719199077E-1,1.998882365E-1,4.085131542E-1
5.251366083E0,-2.366266579E-1,-1.608772034E-1,-2.110850698E-1,3.555707475E-1
5.261336083E0,-1.584285905E-1,-1.351746981E-1,-3.627320230E-2,2.113943294E-1
5.271307083E0,-5.217488799E-2,-9.110002186E-2,-1.632367194E-2,1.062445066E-1
5.281278083E0,-5.017777149E-2,-4.933213620E-2,1.609855413E-2,7.218470654E-2
5.291248083E0,-3.103438944E-2,-2.285466464E-2,1.116519982E-1,1.181170509E-1
5.301219083E0,-7.407355115E-2,-1.291123871E-1,-2.019265759E-1,2.508610004E-1
5.311190083E0,8.273810148E-4,-2.233414916E-1,-1.233879447E-1,2.551601288E-1
5.321160083E0,6.157012101E-2,-1.920611537E-1,1.894801927E-1,2.767329217E-1
5.331131083E0,1.947725806E-1,-6.598865175E-2,2.497152847E-1,3.234943334E-1
5.341102083E0,9.379756171E-2,-2.859165114E-2,2.379734910E-1,2.573846295E-1
5.351072083E0,-4.668205015E-2,6.350368559E-3,-5.714074552E-2,7.405812438E-2
5.361043083E0,-1.162727603E-1,2.779906106E-2,-2.984296077E-1,3.214846394E-1
5.371013083E0,-1.122404473E-1,4.621942576E-2,-2.306796741E-1,2.606669626E-1
5.380985000E0,-5.312904395E-2,-4.746229713E-2,-1.432287169E-1,1.599682165E-1
5.390956000E0,1.699299540E-2,-1.381634292E-1,9.786718726E-2,1.701642777E-1
5.400926000E0,1.091923669E-1,-2.339445401E-1,1.927014238E-1,3.221596802E-1
5.410897000E0,1.302011204E-1,-2.706135989E-1,1.087090945E-1,3.193770795E-1
5.420868000E0,7.053105209E-2,-2.687361859E-1,5.861541331E-2,2.839534004E-1
5.430838000E0,4.414772071E-2,-2.273867416E-1,-2.773217440E-2,2.332870013E-1
5.440809000E0,-1.338069521E-2,-1.717672954E-1,-6.751195192E-3,1.724199101E-1
5.450780000E0,-4.184760880E-2,-1.134067841E-1,-5.410311699E-2,1.324366577E-1
5.460750000E0,-7.030483793E-2,-7.258268475E-2,-4.642981589E-2,1.112058639E-1
5.470721000E0,-6.280962110E-2,-3.429966652E-2,1.606288612E-2,7.334529253E-2
5.480692000E0,-1.028097656E-2,1.350350501E-3,1.405378282E-2,1.746512917E-2
5.490662000E0,-3.203919690E-2,5.521032382E-3,-5.258225620E-2,6.182140085E-2
5.500633000E0,5.016289763E-2,-3.125344989E-2,-1.229330313E-1,1.364024363E-1
5.510604000E0,7.319456846E-2,-3.127346747E-4,1.290071189E-2,7.432342176E-2
5.520574000E0,8.513359610E-2,5.008871108E-2,9.036170125E-2,1.338724961E-1
5.530545000E0,4.982909471E-2,4.070363760E-2,3.396413684E-2,7.275498185E-2
5.540516000E0,1.094880167E-2,-8.180163335E-3,-9.403316796E-2,9.502119767E-2
5.550486000E0,-1.309571654E-2,-5.218470035E-2,-1.051738679E-1,1.181367142E-1
5.560457000E0,-4.060682964E-2,-8.405314028E-2,3.215442359E-2,9.873070425E-2
5.570428000E0,-2.358679086E-2,-5.560870193E-2,1.003697956E-1,1.171441859E-1
5.580398000E0,-8.540187366E-3,-4.239645221E-2,7.832286894E-2,8.946991539E-2
5.590369000E0,3.011199117E-2,7.755015939E-3,-5.564678192E-2,6.374509097E-2
5.600340000E0,1.578656863E-2,4.728910991E-2,-9.856592953E-2,1.104568609E-1
5.610310000E0,-5.092486292E-3,9.012042138E-2,-4.560828209E-5,9.026420025E-2
5.620281000E0,-5.176759288E-3,9.765250308E-2,-6.632496715E-3,9.801428573E-2
5.630252000E0,3.370393574E-2,7.662724949E-2,-4.747705221E-2,9.623804412E-2
5.640222000E0,5.406883769E-2,3.509888040E-2,-7.887776971E-2,1.018679202E-1
5.650193000E0,3.839358542E-2,-1.045229997E-2,1.661954105E-2,4.312223465E-2
5.660164000E0,8.458911069E-3,-2.737852748E-2,5.146426857E-2,5.890422636E-2
5.670134000E0,-8.057097718E-3,-3.191367363E-2,5.166599751E-3,3.331806028E-2
5.680105000E0,-2.285234403E-2,-5.005024737E-2,-1.594886541E-2,5.728545363E-2
5.690075000E0,-5.410096083E-2,-5.430546720E-2,-1.040804386E-2,7.735841975E-2
5.700046000E0,-2.744569737E-2,-2.134565360E-2,1.274693012E-3,3.479264397E-2
5.710017000E0,-3.074502535E-3,7.547659054E-3,1.416838825E-2,1.634512002E-2
5.719987000E0,1.145330675E-2,2.695125134E-2,8.937469125E-3,3.061742214E-2
5.729958000E0,2.144119162E-2,3.368102197E-2,1.309191585E-3,3.994809034E-2
5.739929000E0,2.793024883E-2,3.908373959E-2,-3.162057281E-2,5.751085223E-2
5.749899000E0,2.938609589E-2,5.443649964E-2,-3.206671536E-2,6.967890182E-2
5.759870000E0,2.671227381E-3,4.027237804E-2,-2.112715960E-2,4.555608369E-2
5.769841000E0,8.428359367E-3,-2.190019805E-3,-1.948701560E-2,2.134425463E-2
5.779811000E0,-1.279133242E-2,2.744105615E-2,-1.761292452E-1,1.787124527E-1
5.789782000E0,-3.584931571E-2,1.237949840E-1,3.620420516E-2,1.338697724E-1
5.799753000E0,4.834375575E-2,-1.028221269E-1,2.862890339E-1,3.080112326E-1
5.809723000E0,1.559733812E-2,-1.194937082E-1,-1.254344702E-2,1.211584142E-1